rx ry rz vx vy vz ax ay az
+1.393853E+00 +4.759696E+00 +6.339966E+00 -1.806654E+00 +7.168523E-01 +1.037545E+00 +1.898532E+01 -9.817094E+00 +2.144812E+01
-8.598992E+00 +2.279696E+00 +1.044509E+01 -9.936330E-01 -1.177006E-01 -9.384548E-01 +1.317357E+00 -1.013958E+00 +1.816012E+00
+9.036070E+00 +3.052931E+00 +3.158450E+00 +1.312055E+00 -7.708072E-01 +1.376085E+00 +2.687433E+00 -5.090993E+00 -5.503933E+00
-7.437893E+00 +8.340967E+00 +4.018602E+00 +6.148842E-01 -6.234248E-01 -2.837581E-02 +4.278961E+00 +1.482395E+00 +2.508165E+00
-1.109338E+01 +3.676418E+00 +5.173772E+00 -1.335707E+00 +7.355305E-01 -1.513415E+00 -2.818532E+00 -8.950010E+00 +1.148145E+01
+9.911215E+00 -4.210986E+00 -3.789035E+00 +1.536534E+00 -1.506346E-01 +1.814536E+00 +9.126231E-01 +4.131472E+00 -5.857467E+00
-2.314718E+00 +9.411968E+00 +1.140275E+01 -1.024476E+00 +4.968269E-01 +2.088403E-01 -1.569651E-01 -9.754408E-01 -2.843408E+00
+1.889793E-01 -8.050102E-01 +5.472565E+00 +1.975015E+00 +1.041111E+00 -1.200004E-01 -4.389378E+00 +5.186342E+00 +6.844507E+00
+9.276685E+00 +2.878052E+00 +6.068245E+00 -1.328391E+00 +3.724680E-01 +1.267261E+00 +1.848169E+00 +3.088273E+00 -1.385216E+00
+3.646589E-02 +3.713150E+00 +7.049792E+00 +5.883887E-01 -4.463789E-01 -1.356361E+00 +6.692295E-01 +1.855329E-01 +5.082871E+00
+5.567255E+00 +1.690466E+00 +4.311615E+00 +5.151969E-01 +1.471836E+00 -3.855190E-01 +5.193721E+00 +2.062442E+01 -2.889781E+00
+1.220198E+01 -7.505420E+00 -3.425526E+00 +1.126892E-01 +9.086522E-01 -1.436374E+00 -1.252780E+01 +4.099142E+00 -3.666389E+00
+8.033842E+00 +7.268581E+00 +2.184746E+01 +1.138028E-01 -5.190111E-01 +6.633658E-01 +3.524712E+01 -1.962103E+01 +1.966403E+01
-4.724684E+00 +5.906808E+00 -2.632167E+00 -1.335356E+00 -4.752748E-01 +2.920532E-01 -1.814986E+01 -8.385219E+00 +1.139921E+01
+3.896435E+00 -1.648181E+00 +8.994682E+00 -1.586368E-01 -1.358075E+00 +5.144393E-01 -1.659242E+01 +2.787563E+01 +6.549834E+00
-5.991323E+00 +4.370750E+00 +9.258521E+00 +6.854409E-01 +5.446248E-01 +1.890121E+00 +1.957855E+01 -2.062276E+00 -6.419765E+00
+8.232031E+00 +2.418484E+00 +8.698174E+00 +2.352620E+00 +7.520882E-01 +9.015008E-01 -7.397970E-01 -8.310416E-01 +1.280670E+00
+3.854682E-01 -6.970767E+00 +1.282979E+01 -1.134630E+00 -1.131203E+00 -4.017374E-01 -1.019383E+01 -9.620518E-01 -1.289049E+00
+6.891251E+00 +1.288021E+01 +8.620290E+00 -1.500253E+00 -5.671933E-01 +1.059420E+00 +3.980208E-01 +2.672763E+00 -1.465653E+00
+2.709184E+00 +1.152852E+00 +1.177824E+01 -1.191449E+00 -9.422319E-01 +4.939489E-01 -3.014168E+00 +2.304339E+00 +2.608767E+00
-4.376803E+00 -3.693345E+00 +2.295190E+00 +4.176622E-01 +1.663773E+00 -1.580437E+00 -5.372076E+00 -1.490006E+01 +9.162759E-01
+6.788016E+00 +2.370249E+00 -2.695400E+00 -1.289717E+00 -8.732943E-01 -1.397872E+00 +1.137016E+00 +5.872562E+00 -3.332421E+00
-5.037909E-01 +7.723007E+00 +8.598793E+00 -4.858740E-02 -1.000801E-01 -6.617755E-02 +8.514856E-01 -1.342545E+00 +1.980848E+00
+6.509815E+00 +1.651902E+01 -8.588850E-01 -8.475310E-01 -2.355369E+00 -4.808358E-02 -4.080594E+01 +8.269169E+01 +6.377857E+01
+1.300719E+00 +1.100408E+01 +3.408920E+00 +1.241089E+00 +1.526950E-01 -1.085116E+00 -7.539962E+00 -2.760456E+00 +2.348027E+00
+1.238776E+00 +8.058252E+00 +2.538395E+00 -3.935857E-01 -1.834828E+00 -1.231537E+00 -4.258877E+00 +1.440907E-01 -2.436454E+00
+4.316653E+00 -1.887878E+00 +7.380866E+00 -4.809625E-01 -9.316640E-01 -2.463050E+00 +3.629739E+00 -1.061538E+01 +9.121445E+00
+1.234255E+01 +4.357183E+00 -8.922605E+00 +2.484874E+00 +2.118497E+00 +1.137130E+00 +1.888123E+00 +3.698824E-01 +4.074704E+00
+7.141182E+00 +1.072462E+01 +1.898428E+00 +9.852728E-01 +1.760135E+00 +3.049501E-01 +1.739079E+00 -2.788001E+00 -1.970650E-01
+5.344131E+00 -6.050728E+00 +1.476955E-01 +1.057644E-01 +6.206948E-01 +6.066981E-01 +4.060724E+00 +5.500007E+00 +2.411564E+00
-8.226391E+00 -1.669987E+00 -8.479428E+00 -3.486206E+00 +7.927143E-01 -2.093839E+00 +2.330381E+01 -6.530210E-01 +1.618420E+01
+1.030312E+01 +2.321917E-02 -7.640350E+00 -3.444806E-01 -1.653767E+00 +6.824806E-01 -2.071298E+01 +3.288339E+00 -2.990550E+01
-2.809565E+00 +7.078775E+00 +1.550622E+01 -2.147067E-01 -8.601398E-01 +8.240438E-02 +2.606852E+01 -1.014059E+01 +2.671578E+01
+1.854468E-01 -1.552885E+00 +9.123384E+00 -1.296475E+00 -2.321534E-01 +9.583441E-01 -2.245299E+01 +1.429622E+01 -5.276118E+01
+2.330693E+00 +1.586197E+00 +3.751345E+00 -8.852682E-01 +3.515180E-01 +1.019438E+00 +1.744625E-01 +5.729139E+00 +6.197646E+00
+2.722437E+00 +4.793888E+00 +5.172762E+00 +6.255207E-01 +4.314735E-01 -7.091851E-01 +3.850627E-01 -1.389076E+00 -3.983510E+00
-7.961759E+00 -9.785582E+00 +1.373168E+01 -7.471471E-01 +4.473024E-02 -1.283767E+00 +4.222760E+00 +5.125345E+00 +1.413719E+01
-5.421318E+00 +1.042378E+01 +1.256509E+01 +4.307156E-02 +1.038402E-01 +4.526577E-02 +1.425851E+01 +1.820579E+01 +8.473230E+00
+3.135448E+00 -3.263396E+00 +1.431407E+01 -4.192384E-01 -2.741567E-01 -8.506792E-02 -2.772600E+01 +5.403142E+01 +1.133011E+01
-8.203154E+00 +6.156287E+00 +5.146757E+00 +1.137757E+00 +9.770714E-02 +5.846465E-02 +2.922167E+00 +3.437393E+00 +3.536208E-01
+1.940520E+00 -3.320185E+00 +1.585865E+00 -2.320501E-01 -1.299488E+00 -2.082503E-01 -3.466096E+00 -1.596249E+00 -3.336791E+00
-1.213250E+00 +5.219678E+00 -3.811751E+00 +1.635734E+00 -4.286133E-01 +1.580512E-01 -2.563475E+00 -2.949448E-01 -2.410014E+00
+2.473496E+00 -2.152752E+00 -4.822240E+00 -1.335339E+00 +3.064612E+00 +2.799165E-01 +5.030916E+01 +2.683219E+01 -6.395425E+00
+2.149859E+00 -7.592145E+00 +1.592965E+00 +1.447289E+00 -7.100884E-01 +2.463287E-04 -2.351994E+00 -1.438442E+00 -7.635633E+00
+8.242592E-01 +9.654767E+00 -6.911687E+00 -1.868043E+00 -2.539138E+00 -1.143326E+00 +2.327099E+01 -1.418549E+01 +3.166187E+01
-2.874806E+00 +1.363045E+01 +9.417181E+00 -1.037211E-02 +1.049234E+00 +4.624685E-02 +1.716523E-01 +5.227952E-02 +1.846243E+00
-1.114817E+01 -3.285547E+00 +8.366834E-01 +9.661825E-01 -1.538066E+00 -1.958398E+00 -1.306404E+01 +4.146765E+01 +7.916244E+00
-7.175450E+00 +1.348909E+01 -5.233755E+00 -2.190279E+00 -2.548480E-01 +3.939629E-01 +4.369098E+00 +8.011021E+00 -1.875352E+00
-7.435438E-01 +2.933090E+00 +7.592823E+00 -2.588713E-01 -1.189386E+00 -8.724311E-01 -1.073916E+00 +2.416145E+00 -5.392808E-01
-7.906835E+00 -1.439985E+00 -6.431091E-02 +1.016985E-01 +6.250341E-02 +1.888326E+00 +2.316522E+00 -7.615498E+00 +1.999030E+01
-1.307859E+00 +5.975543E+00 +7.732813E+00 -1.485704E+00 +6.204810E-01 +1.028064E+00 +3.022192E+00 -1.306509E+00 -2.669040E+00
-9.991829E-01 -2.946196E+00 +4.023869E+00 +5.532315E-01 +6.333875E-01 +7.536305E-01 +8.253023E-01 -5.044956E+00 -2.127938E+00
-6.035930E-01 +3.284790E+00 +1.079546E+01 -1.049331E-02 -1.756341E+00 +1.627525E-01 +7.550366E+00 -2.294858E+01 +4.109486E+01
-7.359870E+00 -2.884813E+00 -2.511271E+00 +3.097809E-01 -4.690500E-01 -3.502133E+00 -8.908535E+00 +5.342322E+00 +8.624966E+00
+3.448295E+00 -2.433853E+00 +6.215924E+00 -1.113511E+00 -1.266554E+00 +4.755634E-01 -2.403541E+01 -1.084197E+01 -9.163836E+00
-3.191829E+00 +4.683270E+00 +5.547936E+00 +1.107589E+00 -1.666855E-01 +1.219932E+00 +4.283548E+00 -9.502972E+00 +8.732856E+00
-3.451434E+00 +7.247743E+00 +1.478774E+01 -2.236143E+00 -1.471524E+00 +2.918019E-02 -2.148582E+01 +1.147389E+01 -2.981530E+01
-1.582287E+00 +6.015074E+00 +1.484243E+01 +3.134611E-02 -8.323991E-01 -1.504913E+00 -3.272459E+00 -5.259834E-01 -4.632178E-01
+1.802248E+01 +4.604251E+00 +8.216332E+00 -1.264797E+00 -4.645136E-01 +6.603741E-01 +4.622402E+00 +1.971645E+00 +1.887113E+00
-1.232568E+00 -5.633885E+00 +4.379169E+00 -1.914134E+00 -1.282588E+00 -1.149246E+00 -4.018898E+00 +7.965575E+00 -1.932432E+01
-1.209148E+00 +7.393612E+00 -1.264971E+01 -1.138963E+00 -1.787616E-01 +3.978464E-01 -2.290673E+00 +1.330382E+00 -1.802086E+00
+4.992472E+00 +3.949733E+00 -2.478853E+00 +3.407327E-01 -1.532732E+00 +1.403257E+00 -1.094821E+01 +3.861410E+00 -4.829307E+00
+1.524855E+00 +1.422206E+00 -1.769016E+01 -9.024817E-01 -1.768788E+00 -2.077935E+00 +1.673466E+01 +8.498603E+01 +2.765830E+00
+8.099993E-01 +1.219589E+01 +5.264614E+00 +4.766622E-01 -1.683173E+00 +9.001040E-01 +5.668417E+00 -1.813730E+01 -2.280623E+01
-2.028022E+00 +1.440310E+01 +5.036723E+00 +9.380974E-01 +8.430477E-02 -6.515151E-01 -1.063556E+01 -2.238470E+00 +1.018454E+01
+1.091068E+01 +6.273558E+00 +6.364806E+00 -8.119509E-01 -1.206668E+00 -1.436861E+00 +1.194535E+00 -2.246716E+00 -2.720870E+00
-7.380500E-01 +1.023916E+01 +7.636914E+00 -1.937640E+00 -1.540112E+00 -1.277327E+00 +3.154853E+00 +3.662936E-01 +2.814968E+00
+9.231726E+00 -3.433027E+00 -3.243209E+00 +5.607464E-01 +2.675171E-01 -2.603110E+00 -2.744512E+00 -2.185139E+00 -2.124396E+00
+1.206775E+00 +3.772258E+00 +8.180775E+00 -2.408857E-01 -9.346785E-01 +4.580482E-01 -4.469474E+00 -7.558941E+00 +5.449615E+00
-7.273514E-01 +1.193099E+01 +2.149026E+00 -4.365205E-01 -1.020059E+00 -5.789000E-01 -2.261771E+01 +3.977363E+00 -2.753224E+01
-9.511854E+00 -1.409091E+00 +1.352305E+01 +4.159853E-01 +1.850196E-01 +1.889361E+00 -1.248074E+00 -3.658798E+00 -8.970405E+00
-6.929996E+00 +1.219982E+01 +7.084276E+00 +1.961123E+00 +1.094830E+00 +1.256056E-01 +1.371733E+01 +1.028505E+00 +1.386805E+00
+8.387048E+00 +2.525034E+00 +4.730704E+00 +3.278887E-01 +4.866145E-01 -8.863111E-01 +3.414541E+00 -1.617474E-01 +5.718389E-01
+3.048976E-01 +5.543299E+00 -1.168752E+00 +1.449835E-01 -1.157553E+00 -1.536586E+00 +4.518250E+00 -1.349996E+01 +5.415695E-01
+6.888581E+00 -1.239242E+00 +1.205983E+01 +2.009149E+00 -2.061753E+00 -2.325660E+00 +2.065369E+00 -1.069110E+00 +1.377606E+00
+1.611768E+01 +1.523460E+01 +1.078141E+01 -2.757210E+00 -1.355785E-01 -1.154300E+00 -1.956491E+00 -8.441495E+00 -3.879986E+00
-1.521039E+00 +7.281820E+00 +8.446469E+00 +6.719637E-01 -3.057821E-01 +1.327295E+00 +3.707167E+00 +5.515311E+00 +1.611401E+00
-6.390537E+00 +1.851167E+00 +3.516836E+00 +5.794737E-01 +1.464160E+00 +4.295986E-02 -2.312201E+00 +8.264540E-01 -1.803214E+00
-4.873715E-02 +2.791138E+00 +1.517588E+01 -1.537696E+00 -1.151877E+00 -3.121200E-01 -1.108615E+01 -4.616496E+00 -5.357996E+00
+1.004899E+01 +7.486427E+00 +1.286043E+01 +7.651578E-01 +1.111185E+00 -1.118991E+00 -2.199354E+00 +1.061223E+00 +2.185682E-01
+6.912553E+00 +6.208290E+00 +6.244579E+00 +2.252812E-01 +3.989651E-02 -9.697813E-01 +9.631811E+00 -9.462883E-01 -7.586393E+00
-6.310845E+00 +7.982122E+00 +5.601710E-01 +5.262723E-01 +1.080514E-02 +1.824010E-02 +1.448063E+00 -1.733255E+00 -1.555846E+00
-1.503357E+00 +1.640120E+00 +4.019803E+00 -1.499996E+00 +1.860611E+00 -6.499798E-01 -1.853295E+01 -1.418475E+00 -3.608251E+00
-2.234706E+00 +5.141329E+00 -5.727704E+00 +9.526985E-02 +1.348343E-01 -4.350467E-01 -2.512412E+00 +3.928675E+00 -2.767900E+00
+4.747551E+00 +6.806903E+00 +3.452210E+00 +1.458232E+00 -2.321278E-01 -1.723584E+00 +1.978427E+00 +2.714308E+00 -2.012731E+00
+1.172422E+00 +1.234513E+01 -2.625186E+00 -6.522646E-01 +3.359061E-01 +1.426541E+00 +3.965744E-01 +3.761173E-01 -3.930265E+00
+3.680984E+00 +1.311190E+01 +7.508421E-02 +3.034143E-01 -1.870541E+00 +7.228898E-01 +8.913874E+00 +8.122446E-01 -1.159717E+01
+9.801627E+00 +6.395253E+00 -6.135869E-01 +8.721513E-01 -1.864011E-01 -6.442677E-01 -1.417310E+01 -2.195678E+00 +1.872472E+00
-2.067927E+00 +6.387300E+00 +1.837635E+01 +8.974159E-02 -2.701350E+00 -1.435051E+00 -1.134847E+01 -7.493954E+00 +2.388349E+00
+1.854962E-01 +1.080718E+01 +1.093670E+01 +4.346737E-01 -2.772971E+00 +8.307845E-01 -4.790515E-01 +2.611640E-04 +1.290581E+00
-8.492142E-01 +3.695597E+00 +9.965334E+00 +1.078886E+00 +4.007466E-01 +1.386259E+00 -4.639568E+00 +1.821446E+01 -4.358401E+01
-1.665502E+00 +1.340484E+01 +8.068320E+00 -1.161944E+00 +1.691103E+00 -5.229630E-01 +1.619946E+00 -3.367882E+00 +7.155808E+00
-4.296588E+00 +7.602049E+00 +3.316499E+00 -1.542056E+00 +7.224681E-01 -4.508466E+00 -6.546717E+00 -2.347759E+01 -9.029220E+00
+2.704517E+00 +9.417658E+00 +1.073004E+01 -4.906357E-01 +7.415516E-02 -1.243776E+00 -1.526782E+01 +5.029995E+00 -5.690146E+00
-5.855442E+00 +1.213661E+01 +6.434239E+00 +6.022330E-01 -3.161768E-01 +5.739137E-01 -2.000870E+00 +2.639604E+00 -1.294866E+00
+3.197212E+00 +2.548017E+01 +5.898442E+00 +1.215705E+00 -5.270497E-01 +1.417859E+00 -2.525183E+01 -1.706043E+01 +5.091309E+00
-1.740289E+00 +9.857959E+00 +2.919099E+00 -8.348832E-01 -9.538974E-01 -3.148700E-01 +2.419498E+00 +1.691981E+00 -8.646258E-01
-4.570705E+00 +1.267905E+01 +5.443418E+00 +5.379372E-02 +7.315983E-02 -2.198686E+00 +1.096698E+00 -3.301738E+00 -1.966548E+00
+8.019858E+00 -3.049652E+00 +9.483017E+00 -1.646294E+00 +9.898532E-01 +2.413240E-01 +1.367152E+00 -5.691001E+00 -6.430456E-01
-5.869540E+00 +5.392280E+00 +5.489831E+00 -9.017407E-01 +6.338821E-01 +1.810507E+00 +9.100655E+00 -4.221464E+00 -2.421937E+00
+1.281859E+01 +8.353064E-03 -8.006022E+00 +1.098014E+00 +1.470187E+00 -1.882954E+00 -6.382458E-01 -3.730573E-01 -3.545317E+00
+5.546360E+00 +7.165927E+00 -8.177215E-01 +1.186253E+00 +3.756599E-01 +5.668757E-01 -3.250824E+00 -2.285324E+00 -9.441571E-01
+9.962885E+00 +3.333658E+00 -1.607429E+00 -1.598364E+00 -1.723653E+00 +5.408695E-01 -7.673856E+00 -1.631202E+01 -1.077871E+01
+3.729408E+00 +3.835027E+00 +6.774386E+00 -5.835912E-01 +1.453327E+00 -8.354349E-01 -1.543001E+00 -9.980513E-01 +6.993767E+00
+6.620534E+00 -6.536178E+00 -4.220326E+00 +2.134087E+00 +2.943061E-02 +4.937762E-01 -3.263313E+00 +3.003553E+00 +9.001409E-01
-4.444633E+00 +1.326738E+00 +2.836908E+00 -3.895034E-01 +7.643662E-01 -5.299768E-01 -1.303825E+00 +5.690524E+00 -1.001919E+01
+1.242939E+00 +4.598073E+00 +7.554341E+00 +1.964212E+00 -3.782088E-01 +3.864527E-01 -8.777901E-01 +1.069373E+01 -9.173861E+00
+2.707432E+00 -5.420246E-01 -1.520327E+00 +1.650026E+00 -1.574154E-01 -4.306178E-01 -2.141206E-01 +1.287405E+00 +3.179251E+00
+1.267899E+00 +5.327259E-01 +2.228005E+00 -8.828340E-01 +1.038675E+00 -5.951266E-01 -1.459828E+00 -8.982972E+01 -1.587830E+01
+2.556824E-01 +6.535918E+00 -6.505909E+00 +6.527528E-01 +5.301246E-01 -2.466053E-01 -4.761638E+00 -2.493925E+01 -1.804498E+01
-2.291893E+00 -5.068810E+00 +3.140179E+00 -1.461972E-01 -6.720538E-01 +3.310059E-01 +1.510440E+00 +9.207974E-01 -2.245141E+00
+6.220119E+00 +3.941976E+00 +1.105294E+01 -1.838849E+00 +3.122389E+00 +2.130130E-01 -1.638450E+01 +9.078969E+00 -2.433027E+01
+7.631010E+00 +1.693740E+01 +6.780101E-01 +2.118901E+00 +2.611055E+00 -4.482315E-01 +2.022644E+00 +3.544225E-01 +2.040916E+00
-2.395269E-01 +2.120551E+00 +1.299479E+01 -5.290311E-01 -9.185282E-02 +6.738980E-01 +3.807394E+00 +8.649873E+00 +2.401234E+01
-1.201519E+01 -1.205566E+01 +1.111586E+01 +1.977276E+00 -3.010131E+00 -4.476476E-01 +1.970402E+01 +1.017376E+01 +1.946852E+00
+1.334304E+01 -9.007475E-01 +3.499588E+00 +1.862712E-01 +1.898559E+00 -1.063929E+00 +2.795957E+00 -6.750915E+00 +4.674312E+00
+6.394806E+00 -3.048461E+00 +1.260753E+01 -1.036552E+00 +3.791149E-01 -3.389403E+00 +1.207454E+01 -1.667444E+01 +1.904418E+01
+1.083412E+00 +6.078993E-01 +1.584846E+01 +1.236941E-01 -4.397543E-01 -2.708158E-01 -8.382917E+00 +1.332428E+01 -1.955163E+01
+1.025588E+01 -1.622570E+00 +1.007778E+01 -3.384653E-01 +9.325124E-01 -9.113983E-01 +1.060662E+00 -2.249019E+01 +5.702691E+01
+2.537234E-01 -2.612014E+00 +4.004260E+00 -9.074658E-01 +1.505889E+00 +6.899072E-01 -3.291107E+00 +2.658349E+01 +1.182124E+01
+4.653923E+00 +4.108873E+00 +3.984013E+00 +1.210547E+00 +2.525251E-01 -9.917905E-01 -3.021040E+00 +4.617560E+00 -1.267997E+00
-1.084348E+01 +4.949199E+00 +1.494507E+00 +2.314815E+00 -1.692657E+00 +8.470713E-01 -4.408455E+01 -2.003796E+01 -8.786386E+00
-1.669245E+00 -6.205518E+00 +2.874235E+00 +1.067257E+00 +1.289094E+00 -3.593248E+00 -3.252806E+01 -7.172648E+00 +2.215891E+01
+8.849301E+00 -9.524500E-01 +1.090807E+01 +1.322529E+00 -8.103076E-01 +1.463617E+00 +1.851501E+01 +6.970299E+00 +5.315778E+00
+3.065286E+00 -1.004640E+00 -3.661564E-01 -7.974091E-01 +4.227731E-01 +6.878430E-01 +2.721033E+00 +2.158081E+00 +9.832482E-01
+1.366345E+01 +8.439533E+00 +4.384701E+00 +1.241903E-01 +2.708767E+00 -1.338002E+00 -6.203154E+00 +5.289072E+00 -7.441455E+00
+5.964030E+00 +3.173547E+00 +6.859217E+00 -1.375644E+00 -1.957053E+00 +1.759140E+00 +1.702026E+00 +5.570843E-01 -2.812741E-01
-7.514239E+00 +1.453749E+01 +3.968560E+00 -1.939265E+00 +7.142829E-01 +6.345178E-01 +1.904619E-01 -9.696210E+00 -1.678728E-01
-4.096831E-01 -8.401742E+00 -2.982453E+00 -4.438380E-01 +1.165422E+00 -3.074398E-04 +1.960000E-01 +2.594126E-01 +7.965583E-02
+1.460607E+00 -7.817690E-01 +7.501112E+00 -1.931952E-01 +1.420222E+00 -2.420684E+00 +6.166178E-03 +2.211761E+00 -2.679108E+00
-1.173122E+01 +2.627657E+00 +6.453454E+00 -8.998094E-01 -4.886161E-01 -1.138944E+00 -2.186568E+00 +7.110898E+00 +9.241930E+00
-7.288830E-01 +1.115390E+01 +2.842010E+00 -9.750485E-02 -1.370088E-01 -7.927814E-01 -1.060993E-01 -9.828484E+00 +8.003731E+00
-7.686594E+00 +5.132642E+00 +6.776855E+00 -6.022363E-01 -2.961970E-01 +1.022860E+00 +3.799416E+00 -3.143157E-01 +8.879699E-01
+5.222458E+00 +4.888423E+00 -6.935634E-01 +1.782830E+00 +7.311765E-01 -8.544463E-01 -2.084275E+01 -1.431747E+01 -8.877335E-01
+1.200652E+01 +1.718645E-01 +4.854282E+00 +1.496164E+00 -1.066776E+00 -3.951252E-02 -1.110217E+01 -5.700729E+00 -3.483461E+01
+5.739258E+00 -5.075003E+00 +6.445251E+00 -3.482614E-01 -2.883462E-01 -6.901171E-01 +2.331989E+00 +1.658365E+00 +7.609028E-02
+4.558652E+00 +7.130790E+00 +1.693939E-01 -7.294410E-01 +2.710708E-01 -9.059025E-01 +1.987533E+01 -1.084393E+01 +2.403944E+01
-2.658478E+00 +1.653247E+00 +9.508455E+00 +9.515462E-01 -9.132903E-01 +4.709146E-01 +1.609717E+00 -7.981338E-01 +2.179373E-01
-5.847439E-01 +4.562038E+00 +3.287402E+00 -5.617386E-02 +5.581244E-01 +9.767861E-01 -2.653090E+01 -4.633677E-01 -4.280648E+00
+4.161848E+00 +9.446006E+00 +1.983926E+01 +3.294825E+00 +6.427783E-01 -9.504806E-01 -6.226609E+00 -4.410379E+00 +2.434946E+00
+1.640402E+00 +6.383286E+00 -2.799122E+00 +4.366763E-01 -1.233499E+00 +3.088605E-01 +2.484224E+00 -9.462948E-01 +1.666787E+00
+1.337984E+01 +1.024243E+01 -3.975463E+00 +2.107779E+00 -6.666211E-01 +2.285321E-01 -9.610556E+00 -1.418554E+01 +4.966040E+00
-3.415517E+00 +8.697822E+00 -3.522628E+00 -3.291465E+00 +9.442088E-01 -3.899269E-01 -4.135872E+00 +3.498321E+00 +7.673449E+00
-6.192898E-01 +9.616244E+00 -1.442313E+00 +1.721102E+00 +7.547691E-01 +1.308210E+00 -5.970276E+00 -4.920104E-01 +1.773816E+00
+4.197311E+00 +8.813241E+00 +8.107608E+00 +1.570563E-01 +4.838646E-01 -8.483028E-01 +1.101965E+00 +2.475928E+01 +1.578827E+00
-1.242602E+00 +3.927462E+00 +8.965266E+00 -7.116045E-01 +2.321072E-02 -1.828820E-01 -1.288525E+00 -1.923423E-01 -2.823324E+00
+3.686274E+00 +6.352734E+00 +6.010591E+00 -2.114554E+00 -1.530756E+00 -3.791045E-01 +2.462776E+01 +3.993646E+00 -3.926765E+01
+2.373619E+00 +2.590459E+00 -4.910839E+00 -9.009990E-01 +5.133963E-01 +1.672099E+00 -3.765320E+00 -6.461337E+00 +3.789029E+00
+6.244033E+00 +1.573468E+00 -2.236246E+00 -5.532783E-01 +1.895475E-01 -8.701360E-01 -2.449991E+00 +6.133391E+00 +3.535199E+00
+1.470879E+01 +6.831813E+00 -4.179966E+00 -1.056700E+00 -7.415287E-01 +2.298410E-01 +5.940013E+00 -1.596024E+00 -1.363448E+01
+6.828914E+00 -2.250085E-01 +3.052410E+00 -9.038089E-01 +1.062547E-01 +1.353183E+00 +2.201559E+01 -6.177122E+00 +6.986588E+00
-2.687166E+00 +5.957606E+00 +5.181084E+00 -1.680544E+00 -9.888138E-01 -1.033388E-01 +9.142521E+00 +7.523328E+00 +2.954671E+00
+3.451613E+00 +6.862056E+00 +1.039157E+01 -1.607155E+00 +1.594661E+00 +1.163553E+00 +3.601177E+00 -2.899107E+00 -5.443788E+00
-2.708730E+00 +9.503400E+00 +5.631229E+00 -5.937967E-01 +4.655524E-01 +2.049562E+00 +5.859786E+00 +1.430273E+01 +1.590890E+00
+6.606812E+00 +1.165557E+01 +1.204612E+01 -1.463183E+00 +1.039623E+00 -1.768617E-01 -1.099735E+01 -1.914203E+01 -4.388604E+00
-3.361762E+00 +1.426820E+00 +1.063264E+01 -1.636717E-01 +1.593840E+00 +3.382325E-02 +2.879285E+01 +2.912184E+01 +8.579427E+00
+6.316198E+00 +1.292146E+01 +9.784483E+00 -1.614444E+00 -1.845466E+00 +1.954701E-01 -1.549049E+00 +3.452911E+00 -4.804679E+00
+7.811543E+00 +6.765496E+00 +1.273553E+01 +7.322330E-01 +1.377254E+00 +1.311660E-01 -1.103926E+01 -8.873619E+00 +3.772463E+00
-4.726197E-01 +4.117612E+00 +6.188238E+00 -9.787799E-01 +2.897323E-02 -1.403128E+00 -2.471974E+00 +5.487401E-01 -5.573475E+00
-9.480686E-01 +8.346535E+00 +6.662786E+00 +1.466446E+00 -1.013511E-01 +5.243543E-01 +6.712892E+00 -1.892368E+01 -3.279016E+01
-6.229400E+00 -7.746607E-01 -3.444930E+00 -6.580356E-01 +1.607430E-01 +2.172179E-01 +4.401727E+00 +2.967276E+00 +2.837859E-01
-4.441752E+00 +8.037241E+00 +4.535987E+00 -1.519078E+00 +2.259175E-01 +5.911182E-01 +7.126923E+00 -3.540665E+00 -8.444373E+00
-3.471161E+00 +5.976020E+00 +1.386334E+00 -1.600199E+00 +5.954628E-01 -2.310537E-01 +7.633735E+00 -3.142949E+00 +1.172820E+01
+2.608254E+00 +1.174179E+01 -2.666311E-01 +1.161682E+00 -9.442754E-01 -6.234523E-01 -3.663240E+01 +6.199327E+00 +1.232044E+01
+4.461210E-01 +4.243491E+00 -9.660031E+00 -9.372008E-01 -1.421403E+00 +1.033320E+00 -1.040754E+01 -2.728374E+01 +3.422809E+00
+4.805202E+00 +7.470236E-01 +5.271821E-01 +8.332543E-01 -8.534192E-01 +2.759449E-01 +3.523049E+01 +9.338733E+00 +1.042070E+01
-4.576676E-01 +1.843640E+00 -6.208571E-01 -4.189070E-01 +8.338507E-01 -5.187255E-02 +1.288826E+01 -9.054164E+00 -1.064232E+01
+6.502726E+00 +1.485854E+01 +4.088912E+00 +1.725556E+00 +8.810350E-01 -3.100717E-01 -5.467018E-01 -4.749066E+01 -6.504745E+01
+4.097895E+00 -4.581917E+00 +3.273611E+00 -1.758652E-01 +1.003095E+00 +1.345991E+00 +3.722865E+00 -3.031900E+00 +1.500801E+00
-4.216236E+00 +2.920734E+00 +8.679592E+00 +6.255421E-01 +5.020507E-01 -1.465592E+00 -1.029709E+01 -2.590019E+01 -4.934297E+00
+1.715973E+00 -1.092874E+00 -9.420655E-01 -6.631168E-01 -8.583976E-01 +5.432617E-01 -2.932418E+00 +9.291701E+00 -1.755427E+01
+7.023083E+00 +5.717793E+00 +9.893400E+00 +8.089495E-01 -7.503625E-01 +2.017694E+00 -2.931069E+00 +2.282774E+00 -3.867838E+00
+1.461339E+00 +1.721523E+01 +9.400314E+00 -1.245038E+00 +1.496504E+00 +1.824863E-01 +1.213219E+01 -3.739801E+01 +5.401237E+00
+2.221126E+00 +2.095006E+01 +2.930127E+00 +2.142981E+00 -9.284254E-01 -1.484966E-01 +1.592237E+01 -1.265314E+01 -1.277932E+01
-5.432244E+00 +6.461925E+00 +9.243769E+00 -1.645093E-01 +1.856562E+00 +1.835509E+00 -3.206185E+00 +1.704885E+00 +2.276539E+00
-4.398244E-01 +5.143360E+00 +4.323476E+00 +6.875207E-01 -9.869025E-02 -8.574321E-01 +1.358465E+00 -6.823374E+00 +5.665408E+00
-2.864232E+00 +4.643558E+00 -9.469203E-01 -7.517036E-01 +1.338108E+00 -8.941460E-01 +3.836202E+00 +3.209498E+01 +3.918683E+01
+2.837492E+00 +8.423923E+00 +1.109316E+01 -8.858023E-01 -3.072082E-01 -1.494248E-01 -5.136624E+00 -6.284102E+00 +1.317334E+00
+9.931931E+00 +9.546902E+00 +1.105553E+01 +5.322159E-01 -1.668719E+00 -4.903462E-01 -3.501653E+00 +4.189951E+00 -2.889800E+00
+1.053121E+00 +9.120720E+00 +9.914640E+00 +4.301153E-01 -1.017621E+00 +1.245942E+00 +1.578389E+01 -5.836027E+00 +3.428829E+00
+7.446690E+00 +1.157916E+01 +2.603652E+00 -2.188483E-01 +2.409517E+00 +2.694692E+00 +1.639232E+01 -2.796724E+00 +1.076691E+01
-7.349316E+00 +1.032416E+01 +9.653105E+00 -7.231375E-01 +6.158561E-01 +1.010256E+00 +3.803133E+00 +4.567799E-02 -3.133268E-02
+2.246807E+01 +6.120032E+00 +5.031446E-01 +4.941472E-01 -5.638769E-01 +1.184746E+00 -2.878569E+01 +4.806561E+01 +2.314239E+01
-6.529241E+00 +1.207085E+01 -1.610246E+00 +2.351774E+00 -3.359486E-01 +5.067927E-01 -4.333806E+00 +1.129482E+00 +1.805021E+00
-2.240656E+00 +8.823792E-01 +3.666352E+00 -2.233137E-01 -5.227807E-01 -2.379524E-01 -6.272001E-01 -2.066504E+00 -1.787209E+00
+9.256524E+00 +9.679871E+00 -6.436182E+00 +1.099606E+00 +1.321960E-01 +2.026775E-01 +1.021904E+00 -9.186337E+00 -3.390288E+00
-2.524371E+00 +4.797991E+00 +1.019330E+01 -1.215343E+00 -2.137329E+00 +2.441356E-01 +1.265603E+01 -2.908950E+00 +7.817673E-01
+4.309550E+00 +9.462530E+00 +2.418797E+00 +2.726082E-01 -1.720059E+00 +1.777337E+00 -8.418532E+00 -2.273191E+01 -2.014195E+00
+1.003717E+01 +1.469275E+01 +7.744225E+00 -1.854372E+00 -2.760238E+00 -3.666706E-01 +4.962575E+00 -6.316193E+00 +1.205333E+01
-5.483569E+00 +8.042756E+00 +4.840066E+00 -5.507927E-01 +1.900483E+00 +5.024492E-01 -4.725802E+00 +2.373217E+00 -1.427498E+00
+6.656415E+00 -2.301895E+00 +1.374909E+01 -2.198527E+00 -2.988888E+00 +2.693355E+00 +6.357636E+00 +2.848668E+00 +2.189681E+00
+8.360502E+00 +1.593105E+01 +3.109415E+00 +1.364325E-01 -5.074707E-01 +7.755092E-01 +2.296887E+00 -6.972522E+00 +1.274328E+00
+3.730674E+00 +8.791658E-01 +2.107111E+00 -6.024768E-01 -7.067573E-02 -1.397950E+00 -5.639461E+00 +1.199623E+00 -1.624269E+00
-1.977036E+00 +8.718049E+00 +1.041837E+01 +1.669174E-01 +1.731534E-01 -9.073187E-01 -1.271917E+01 +8.830733E+00 -7.900310E+00
-8.063222E+00 +1.386771E+01 +1.315808E+01 -1.752996E+00 +6.488008E-01 +2.196457E-01 +1.026145E+01 -2.325627E+00 +1.087347E+01
+5.423348E+00 +7.742034E+00 +1.806962E+01 +1.442696E+00 +8.280736E-01 +1.087094E+00 +6.538733E+01 -5.992285E+00 -1.646538E+01
+6.133318E+00 +1.490965E+01 +7.720491E+00 +1.004216E+00 -7.846088E-01 +1.907723E+00 +2.165588E+00 -1.086332E+00 -6.859945E-02
+3.608919E+00 +5.789150E+00 +9.431070E+00 -8.866278E-01 +7.777487E-01 +7.611430E-01 +1.039186E+01 +9.167079E+00 -8.268345E+00
+1.397333E+01 +7.480140E+00 +9.466741E+00 +1.863516E+00 +7.527774E-02 -3.409435E-01 -1.896242E+01 -1.250432E+01 -1.326052E+01
+7.991811E-01 +6.144633E+00 +9.562113E+00 -5.631918E-01 -1.823569E+00 +1.057630E+00 +6.386158E+00 +4.596640E+00 +7.256920E+00
-4.619676E+00 +9.014434E+00 -1.315035E+00 +2.791534E+00 +5.580843E-01 +1.328492E-01 -3.783661E+00 -7.475183E-01 +3.639866E-01
+3.319191E+00 -4.968723E+00 +2.085947E+00 +7.908566E-01 -7.826659E-01 +1.098867E+00 +1.449001E+00 -3.119665E+00 -6.645266E-01
+1.158450E+00 -7.576967E+00 +1.966862E+00 +7.052298E-01 +1.200700E-01 -1.700682E+00 -1.543740E-01 +7.709884E+00 +5.544364E+00
+3.814518E+00 +9.606991E+00 +1.503639E+01 -1.141991E+00 +9.297618E-01 -1.129088E+00 -1.013154E+01 +4.341504E+00 +7.188216E-01
+1.340490E+01 +3.429633E+00 -1.158298E+00 +2.356450E+00 +2.783933E+00 -1.748561E+00 +4.298178E+00 -1.063193E+01 -9.298956E+00
+6.337554E+00 +1.904655E+00 +5.052727E+00 -7.466225E-01 -1.621217E-01 -9.222190E-01 -9.738290E-01 +8.307821E+00 +9.568645E-01
+9.619414E+00 +7.499775E+00 +4.923489E+00 +6.103830E-01 -2.397691E+00 -1.001167E-01 +1.125625E+00 -2.424622E-01 -4.829009E-01
+5.218026E+00 -3.967035E-01 -2.565777E-01 +4.534078E-01 +2.333560E-01 +3.865197E-01 +5.048635E+00 -3.587699E-01 +1.417395E+00
-2.258336E-01 +2.070558E+00 -1.895713E+00 +8.489473E-01 +2.864822E-01 +2.739285E+00 -2.287836E+00 +4.838023E-01 +2.848710E+00
+5.431935E+00 +3.748005E+00 +5.626164E+00 -2.906238E-02 -8.201376E-02 -4.222272E-01 +7.899705E+00 +7.213142E+00 +2.194770E+00
+9.107152E+00 -4.209953E+00 +6.877557E-01 -5.442657E-01 +1.841181E+00 +1.683497E-01 +1.288100E+01 -3.958747E+01 -1.590050E+00
+1.077516E+01 -8.147806E-01 -3.600271E+00 +7.895346E-01 +8.789002E-01 -1.189810E+00 +1.442193E+00 -2.961572E-01 +1.379518E+00
+6.350582E+00 +6.956270E+00 +1.109169E+01 -7.205051E-01 -8.965656E-01 -7.076886E-01 -1.410419E+01 +1.611922E+00 -1.113139E+01
+7.311473E+00 +6.174203E+00 +1.384150E+01 +1.884818E+00 +1.648228E+00 -2.874472E-01 +2.241382E+00 -1.336635E+00 -7.407406E-02
-4.079517E+00 -6.343495E+00 +7.882725E+00 -1.171803E-01 -7.191204E-01 -2.056532E-01 +1.214875E+01 +3.120644E-02 -2.643519E+00
+1.454791E+01 -2.145052E+00 +8.387607E+00 +2.405913E-01 -8.657220E-02 +1.020983E+00 -5.470456E+01 -9.818858E+00 +2.418807E+01
-2.549336E+00 +2.826468E+00 +1.236400E+01 -3.439896E-01 -1.353681E+00 -2.286775E-01 -3.567165E-01 +1.472994E+00 -5.114867E-02
+4.555378E+00 +3.048904E+00 +1.420056E+01 -1.664119E+00 +2.177971E+00 -8.609058E-01 -1.947863E-01 -7.846641E+00 -9.413105E+00
-8.882055E+00 +5.739321E+00 +2.173941E+01 -5.847750E-01 -1.096258E+00 +2.701312E+00 -4.820068E+00 +2.957604E+00 -1.954269E-01
-3.882945E+00 -3.761428E+00 +1.692842E+01 +7.199051E-01 -1.895312E+00 +6.097767E-01 +1.049747E+01 +5.827450E+00 -5.959623E+00
+1.521573E+01 +8.587789E+00 +5.404885E+00 -2.238086E+00 -8.610199E-01 +3.422522E-01 +1.138884E+01 -7.847975E+00 +9.586273E+00
+2.971620E+00 +4.520933E+00 +7.545988E+00 +2.987854E-01 -4.927252E-01 -4.778871E-01 -1.230871E+01 +3.142883E+00 -1.079454E+01
-1.285712E+00 -7.022833E+00 +2.049339E+00 -1.294495E+00 +1.271278E+00 +7.033518E-01 -7.288345E-01 +1.068135E+00 +2.224280E+00
+9.641201E+00 -2.761423E-01 -3.526645E+00 +7.566366E-01 -7.274682E-01 -4.736664E-01 +6.095245E+01 -2.174937E+01 -1.557352E+01
+5.030061E+00 +3.903255E+00 -1.368687E+00 -1.388334E+00 -6.036313E-01 +4.936266E-01 -1.624970E+00 -1.396463E+00 +4.006317E+00
+1.230161E+01 -6.272660E+00 +6.623771E+00 -8.310709E-01 -3.169872E-01 -7.060100E-01 +4.437135E+00 +3.829695E-01 +2.112725E-02
+4.509990E+00 -1.331854E-01 -2.589306E+00 +1.819044E+00 +2.434843E-02 +2.287253E+00 -1.464571E+00 -3.659581E+00 -6.667536E+00
+6.819013E+00 +3.720778E+00 +1.813256E+00 -3.640790E-01 +5.267001E-01 -3.908941E-01 +1.690574E+01 -6.172943E+00 +2.130702E+01
+4.261352E+00 +7.303776E+00 +2.498648E+00 -5.116666E-01 +1.284294E+00 -9.888531E-01 +2.853767E+00 +4.228799E+00 +2.050742E+00
-6.256972E+00 +4.248574E+00 -1.848386E+00 -8.416352E-01 +3.254782E+00 -4.440485E-01 +1.490353E+01 -4.537790E+00 +1.105021E+01
+4.083333E+00 +1.987679E+00 +1.215495E+01 +9.187799E-01 -3.731411E-03 +1.807539E+00 -7.130818E-01 -2.499681E+00 -3.953507E-01
+1.227587E+01 +3.642324E+00 +2.642125E-01 +1.523149E+00 -2.365409E-01 -1.215383E+00 -2.833869E-01 -4.072227E+00 -4.129109E+00
-2.998764E+00 +1.007314E+01 +4.562125E+00 -1.089129E+00 +1.435710E+00 -4.396408E-03 +9.486081E+00 +2.643107E+00 +1.082020E+00
-7.227049E-02 +1.581390E+00 +5.141952E+00 -2.281326E+00 -2.693702E-01 +1.248981E+00 -5.108265E+00 -1.887824E+00 -1.181943E-01
+4.443191E-01 -3.977857E-01 +8.665834E+00 +2.202283E-01 -2.319960E+00 -7.456051E-01 +4.826579E+00 -4.169952E+00 +2.378043E+00
+2.623288E+00 +2.461296E+00 +3.002923E+00 -3.893990E-01 +1.050474E+00 -8.853209E-01 -1.181997E+01 -3.908369E+00 +1.457498E+01
+4.998693E+00 -1.455916E+00 +2.307615E+00 -1.581033E-01 +1.320342E+00 -6.141931E-02 -2.357723E+00 -1.485196E+00 +2.438242E+00
+2.932067E+00 +7.158664E-01 +8.585185E+00 +5.344074E-01 +4.911906E-01 -5.522121E-01 +1.637464E+00 +1.872503E+00 +2.428579E-01
+1.140957E+01 -6.507559E+00 +1.119697E+01 +4.628582E-01 -8.536095E-01 -1.537007E+00 +1.574452E+00 -1.754337E+00 +9.243399E-02
+7.051924E+00 -5.850720E+00 +8.232102E+00 +7.719339E-01 +4.286975E-01 -8.948716E-01 -1.228003E+01 -2.970753E+01 -4.223270E+01
+4.254654E+00 +5.248198E+00 +8.761677E+00 -4.700518E-01 +3.638987E-01 -1.764129E+00 +6.530671E+00 +7.057438E+00 -9.484899E+00
+7.213682E+00 +5.432606E+00 -2.414959E+00 -6.727212E-02 +1.720941E+00 +1.874676E+00 +6.996875E+00 -1.907216E+01 -2.235979E+00
+6.113360E+00 +3.806669E+00 -1.082393E+00 -9.177260E-01 +2.845621E+00 -4.319689E-01 +1.818031E+01 +3.720253E+01 +1.791449E+01
+5.100591E-01 +4.590438E+00 -4.111644E+00 -2.216533E-01 +9.205091E-01 -3.266014E-01 -2.000326E+01 +3.767839E+00 +2.026950E+00
-3.933366E+00 +1.160078E+01 -3.449292E+00 -1.785838E-01 +1.830122E+00 -1.170198E+00 +2.662798E-01 +1.665479E+00 +3.262575E+00
+5.627630E+00 +4.029003E+00 +1.997898E+00 +2.880587E-01 -3.429981E-01 +1.592565E+00 +1.138335E+00 -9.802264E-01 +9.697313E-01
+3.309088E+00 -4.049116E+00 +4.877542E+00 +2.772483E-01 +4.535981E-01 -6.738084E-01 +5.988916E+00 -2.834875E+01 +2.080262E+01
-5.510833E+00 +2.921687E+00 +1.731180E+00 +1.209378E-01 +4.022787E-01 -3.453718E+00 -2.598647E+01 +9.074378E+00 -1.095417E+01
+9.180229E-01 +2.314542E+00 +1.410446E+01 -7.088845E-02 -1.320845E+00 +1.349880E+00 -2.109256E+00 +1.068111E+00 +9.038139E-01
+7.815481E-01 +1.189224E+01 +3.065803E+00 +9.588584E-01 -7.095200E-01 +7.862807E-01 +1.253772E+01 +1.906954E+01 +2.455754E+00
+1.391845E+01 +4.545462E-01 +1.023616E+01 +1.172893E+00 -7.331218E-01 +1.275159E+00 -3.564241E+01 -9.462295E+00 -1.054037E+01
-8.938633E+00 +4.912769E+00 +3.647339E+00 -1.153738E+00 +7.052128E-01 +6.581283E-01 +2.148589E+01 -3.149268E+01 +3.022166E+01
+6.822596E+00 -3.651694E+00 +7.773103E+00 +1.247183E+00 +3.554145E-02 -1.318977E+00 -4.418911E+00 +2.775756E+01 -1.306939E+01
+3.430570E-01 -7.433088E-01 -2.552951E+00 +1.245390E+00 -1.808865E+00 -6.561218E-01 -3.925348E+00 +2.170124E+00 +3.597632E-01
+6.657265E+00 +8.379970E+00 +9.663870E+00 -2.360356E-01 +2.121783E-01 -7.948026E-01 -1.657394E+00 +8.766337E-01 -1.283519E+00
+3.871188E+00 +1.455686E+01 +4.687177E+00 +2.678331E+00 +6.738194E-01 +6.305877E-01 -1.247529E+00 +1.977144E+00 +3.310753E+00
+6.724808E+00 +1.479541E+01 +1.255080E+01 -9.917902E-01 -6.463436E-01 -9.309651E-01 -4.468242E+00 +7.890682E+00 -4.388385E+00
+2.340683E+00 +4.364437E+00 +2.223323E+01 +2.081672E+00 -8.085529E-01 -1.184058E+00 +2.169991E+00 -5.449304E-02 -5.777607E-01
+3.070372E+00 +5.109056E+00 +8.551800E+00 -1.699054E+00 -1.017199E+00 -1.655756E+00 +3.769695E+00 -3.969949E+00 +2.457234E+00
+3.718092E+00 -5.704572E-01 +1.093737E+01 -8.570206E-01 -2.991678E-01 +2.765434E+00 +1.281076E+01 -2.483762E+00 +1.226390E+00
-6.654195E-01 -6.269572E-01 -7.938473E+00 +1.327579E+00 +5.899035E-01 -3.637453E-01 -6.374912E-01 -3.976560E+00 -8.598636E+00
+2.269739E+00 +5.497437E+00 -5.634370E+00 -9.756261E-01 -6.225940E-01 -7.531671E-02 +9.295938E-01 +6.595302E+00 +4.511563E+00
+8.209438E+00 +8.465713E+00 +3.665659E+00 +1.298643E+00 -1.413086E+00 -6.110600E-01 +6.219588E+00 -5.156156E+00 +1.676373E-01
+3.445345E+00 +4.220132E+00 +3.021247E+00 +5.486723E-02 +1.760390E+00 +7.307018E-02 -1.626693E+00 +2.614209E+00 -1.451412E+00
+7.736612E+00 +9.446911E+00 +3.790870E+00 +1.663544E+00 +1.443386E+00 +2.216764E+00 +1.129106E-01 +1.000465E+01 +6.413353E+00
-4.006726E+00 +6.347087E+00 +4.790860E+00 -3.643019E-01 +2.793598E-01 +2.656238E-01 -2.895853E+00 +1.159639E+01 -3.101945E+01
+1.298755E+01 +2.971806E+00 +1.083720E+01 +9.339364E-01 -9.709746E-02 -3.200795E-01 -7.832683E+00 -2.018683E+00 +1.075191E+01
-4.524543E+00 +3.086316E+00 +1.284406E+00 +2.323114E-01 +5.779509E-02 +1.104536E+00 +1.908693E-01 +4.449756E+00 -3.889362E+00
+2.173607E+00 +4.986600E-01 +7.392949E+00 -5.192719E-01 +2.279372E+00 +3.040850E-01 +1.682343E+00 -2.145262E-01 -8.950176E-01
+5.298665E+00 +1.588375E+01 +8.677217E+00 +8.880909E-01 -8.779586E-01 +2.026773E+00 +1.815931E+00 -1.943909E+00 -1.782546E+00
+8.904694E+00 -1.131666E+00 -2.528876E+00 +3.397723E-01 -1.223674E+00 -1.382112E+00 -4.977474E+00 +2.449870E+01 +3.172463E+01
+4.740010E+00 +7.954688E+00 +3.669774E+00 +2.789096E+00 +2.091048E+00 +1.025327E+00 +5.291470E+00 +4.779638E+00 +5.622822E+00
+4.444068E+00 +4.878372E+00 +2.036739E+00 +3.146993E-01 +1.152894E+00 -1.080268E-01 -4.261571E-01 +4.828653E-01 -2.856995E+00
+9.484940E+00 +1.073512E+01 +9.689907E+00 -1.239090E+00 +2.391382E-03 -1.298694E+00 -3.746395E-01 +2.120243E-01 +7.737832E+00
-6.959630E+00 +1.514072E+00 +5.299867E+00 -3.591476E-01 +1.475569E+00 +1.379450E+00 -3.843189E-01 -9.904943E-01 +4.487206E-01
+8.235355E+00 +2.119591E+01 +8.891686E+00 +1.400408E+00 +2.935661E-01 -8.419207E-02 +1.800520E+00 +1.846761E+00 +2.192140E+00
-1.288544E+01 +7.646981E+00 +1.271473E+01 +1.728956E+00 +1.316940E+00 +1.784132E+00 +1.603258E+01 +1.644288E+01 +9.874027E-01
+5.701146E+00 +6.824028E-01 +1.810362E+00 +1.728267E+00 +1.862494E+00 +2.369408E+00 +2.429025E+00 +1.829951E+00 +4.056449E+00
+1.433916E+01 -5.848929E-01 +4.059272E+00 -7.027590E-01 -8.672641E-02 -1.623260E+00 -2.863097E+01 +2.648802E+00 -2.493498E+00
-3.734100E+00 +1.061972E+01 +9.341378E+00 +1.005064E+00 +1.454604E+00 -1.216083E+00 -1.783123E+00 +1.227587E+00 +1.016476E+00
+5.508154E+00 +8.428286E+00 +1.070779E-01 +6.122595E-01 +1.014290E+00 +2.944719E-01 +2.827131E+00 +9.013794E-01 -2.636342E+00
-7.103267E+00 +1.919628E+01 +4.737883E+00 +2.128658E-01 +8.302135E-01 +4.750602E-01 -4.074423E+00 -1.812267E+00 -7.140106E+00
-1.225704E+00 +1.396782E+01 +1.443870E+00 +1.199700E+00 -9.485424E-01 -1.342283E-01 -9.813882E+00 -9.856749E+00 -1.332808E+01
+9.231238E+00 +1.658732E+01 +2.813333E+00 -2.236524E-01 +1.959432E-01 +2.057426E+00 -1.279446E+01 +9.889072E+00 +2.231433E+01
+1.377271E+01 +7.513513E+00 +3.651205E+00 -5.228763E-01 +3.442345E-01 -1.038065E-01 -4.459930E+00 -7.987768E+00 +2.888083E+00
+2.943579E+00 +8.805678E+00 +2.467592E+00 +1.491544E-01 -1.537546E+00 -1.792739E+00 +2.051758E+00 +1.570337E+00 -5.148066E-01
+1.027341E+01 +6.506987E+00 +8.427554E+00 -9.234944E-01 -2.241645E-01 +2.993879E-01 +3.363184E+00 +7.977508E+00 -4.652560E+00
+1.258462E+01 +1.264214E+01 -7.797188E-01 +1.467935E+00 +4.373135E-01 -1.196943E+00 +2.911894E+00 +1.433954E+01 -6.120450E+00
+3.445115E+00 +1.740999E+01 +8.305152E+00 -1.896559E+00 -1.121765E+00 -1.915176E+00 +5.248423E+00 +1.735643E+00 +3.652214E-01
+5.153090E+00 +8.678842E+00 +1.669771E+01 +1.967584E-01 -7.227776E-02 +1.721987E+00 -1.997557E+00 -2.000658E+00 -7.797809E-01
+8.773593E+00 +1.720010E-02 +6.706305E+00 -1.175380E+00 -9.660309E-01 -5.338756E-01 -6.323650E+01 +1.906077E+01 +1.043971E+01
-4.872193E-01 +8.702429E+00 +2.828668E+00 -3.216724E-01 -7.263108E-01 +5.348413E-01 +3.400570E+00 -9.512719E+00 +9.939936E+00
+1.164576E+01 +8.462373E+00 -3.927584E+00 -2.266691E-02 +1.566700E-01 -1.242915E+00 -3.415662E+00 +4.619977E+00 -3.101250E+00
+2.787416E-01 +7.425183E+00 +1.719851E+00 -2.084068E+00 +1.234233E+00 -2.723349E+00 +6.559786E+00 -5.269859E+00 -1.191015E+00
+4.948763E+00 +2.316231E+00 +7.297192E+00 +2.528798E+00 -1.150648E+00 -1.730155E+00 +2.848785E-01 +1.310472E-01 +7.336857E-01
+1.352181E+01 +1.397685E+01 +1.153329E+01 -1.031049E+00 -1.550809E+00 +1.363697E+00 -8.867571E+00 +6.753405E-02 +5.011642E+00
+4.660695E+00 +1.001775E+01 +1.617342E+01 +2.267231E+00 +2.240019E+00 +7.726908E-01 -4.471432E+00 +2.300683E+00 +8.506068E+00
+7.232463E+00 +1.007691E+01 +9.137057E+00 -2.645158E+00 -6.150016E-01 -2.131454E+00 +5.666396E-01 +2.187686E+00 +2.424438E-01
+9.982357E+00 +5.430768E+00 +1.154622E+01 -1.903948E+00 -1.170109E+00 -5.181669E-04 +5.449697E+01 -1.095696E+01 -1.989442E+01
+2.186387E+00 +7.355107E+00 +3.185504E-01 -5.387080E-01 +1.688061E-01 -7.758857E-01 -7.309731E+00 +8.899284E-01 -7.741664E+00
+1.845036E+01 +8.714256E+00 +1.838484E+00 -1.160343E+00 -2.384641E+00 +2.100866E+00 -9.342890E-01 -4.726578E+00 +4.888924E+00
+7.706136E+00 +3.523911E+00 +7.219947E+00 +1.113809E+00 +6.430913E-01 -9.621135E-01 +8.543158E+00 -7.779042E+00 +9.632238E-01
-1.582856E+00 -8.925120E+00 +2.093412E+00 -1.206400E+00 +4.105536E-01 +7.959984E-01 -1.424201E+00 +2.607046E+00 +1.860464E+00
+9.146558E+00 -6.001057E+00 +2.401521E+00 -1.802651E+00 -9.510325E-01 -1.436325E+00 +4.217370E+01 +9.726670E+00 -1.300435E+01
+9.290149E+00 +5.340552E+00 -1.504266E+00 +1.379193E-01 +6.507146E-01 +9.245989E-01 +4.072015E+01 -1.242602E+01 -2.664986E+01
+4.987611E+00 +7.114771E+00 +4.756601E+00 +1.982137E+00 -2.392317E-01 +1.192701E+00 +4.666495E+00 -1.203219E+01 -4.383904E+00
+3.716930E+00 -1.537662E+00 +1.172033E+01 -5.473715E-01 -1.164376E+00 +4.067547E-01 +4.331818E+00 +5.963250E-01 +2.819425E+00
+3.079738E+00 +2.326932E-02 +3.028849E+00 -1.892473E-01 -1.615139E-01 -1.891044E+00 -3.422675E+00 +5.328472E+00 +2.037922E+00
+9.719191E+00 -5.990488E+00 +1.459161E+01 -4.819175E-01 +1.219403E+00 -7.980487E-01 +7.351818E+00 +2.308489E+00 -1.678187E+01
+1.031841E+01 -3.812194E+00 +1.078585E+01 -8.943851E-01 -1.279866E+00 -1.020630E-01 -6.966852E+00 +2.723864E+00 +2.808755E-01
+6.944136E+00 +9.923198E-01 -3.702929E+00 -7.879927E-01 +3.013931E-01 +1.309286E+00 -2.275400E+01 +2.847136E+00 -1.275630E+01
+3.598715E+00 +4.348628E+00 +5.829997E+00 +2.911873E-01 +5.201437E-01 +1.444734E+00 -1.684865E+00 +4.834904E+00 -6.721615E+00
+6.253176E+00 +2.980766E+00 +1.297996E+01 +1.125790E+00 -9.090192E-01 +1.223175E+00 +1.793541E+00 -7.308179E-01 -5.692532E+00
+2.896025E-01 +4.871764E-01 +4.334661E+00 -7.721050E-01 +2.695476E+00 +2.018176E+00 -3.537483E+00 +1.526566E+00 -1.043577E+00
+5.233014E+00 -1.430840E+01 +3.750332E+00 +3.989306E-02 -3.345968E-01 +1.165909E-01 +1.439391E+00 +1.327469E+00 -3.841943E+00
+7.232683E+00 -5.317651E+00 +1.246748E+00 -1.044881E+00 -1.392861E+00 -4.214835E-01 -4.120626E+00 +6.583377E-01 +3.060960E+00
+9.771085E+00 -3.785440E+00 +1.206576E+01 -5.629871E-01 +1.510419E+00 +1.693064E+00 -7.718228E+00 +2.099511E+01 +8.558234E-01
+6.701012E+00 -1.321398E+00 +5.414644E+00 -1.982877E-01 -6.056620E-02 +6.903208E-01 -6.441166E+00 -8.676405E+00 -7.503080E+00
+1.134813E+01 -3.863943E+00 +1.052613E+01 +3.658061E-01 -1.302766E+00 +6.404825E-01 +5.882321E+00 +1.684513E+00 -1.208469E-01
+1.049312E+01 +1.034009E+00 +2.603992E+00 +2.659530E-01 +4.714195E-01 +6.769445E-01 -2.541068E+01 +2.217179E+00 +7.276471E+00
-2.278467E+00 +7.229008E-01 -3.152814E+00 +2.195118E+00 -5.505367E-01 -3.399639E-01 +2.268141E+01 -6.572969E+00 +1.525968E+01
+2.972957E+00 +1.540627E+01 +1.252188E-01 +1.281796E+00 +5.687605E-01 -1.647985E-01 +2.107904E+01 -4.998266E+01 -9.686931E+00
+8.467930E+00 +5.549210E+00 +8.944805E+00 +1.151258E-01 +8.431909E-01 +1.293442E+00 -4.479667E+01 +1.069468E+01 +2.031157E+01
+4.232552E+00 -3.006001E+00 -3.290463E+00 -2.158605E-01 -4.851407E-01 -1.557628E+00 +2.647430E+01 +9.432879E+00 +1.775843E+01
+1.477492E+00 -5.997123E-01 +9.582128E-01 +1.609122E+00 -1.540895E+00 -5.159943E-02 +1.487999E+00 -2.469145E+00 +6.611776E-02
+3.303731E+00 +6.683162E+00 +6.837565E+00 -2.882733E-01 -4.039894E-02 -7.878771E-01 -3.553724E+01 -3.765921E+00 +3.108111E+01
+9.746333E+00 +7.429510E+00 +6.986036E-01 +2.268582E+00 -1.331012E+00 +6.225568E-01 -4.528179E+00 -4.726622E+00 +2.168273E+01
+5.031655E+00 +6.140354E-02 -1.660328E+00 -1.721684E+00 +5.188571E-01 -7.155321E-01 +2.423126E+00 +1.020960E+00 +4.454553E+00
+2.535991E+00 +1.599776E+00 -2.196335E+00 -3.089968E+00 +6.392718E-01 -8.948257E-01 +3.703143E-01 -4.061611E+00 +3.796340E+00
+6.205207E-01 -1.181177E+01 +5.487693E+00 +1.078991E+00 +5.052507E-01 -1.178092E+00 +2.253934E+00 -1.098904E+00 -1.527932E+00
+1.127881E+01 -8.882604E+00 +6.502082E-01 -4.908810E-01 +4.075883E-01 -1.158538E+00 -2.159951E-01 +6.712713E-01 +1.520000E+00
+8.853854E-01 +2.532235E+00 +6.204371E+00 -5.169513E-02 +5.557993E-01 -5.557301E-01 +2.048753E+00 +7.737200E+00 +2.135915E+01
+4.061748E+00 +1.093355E+01 +1.572561E+01 -1.013036E+00 +2.636535E+00 +1.118044E+00 +1.021166E+01 +1.172546E+01 -3.654219E+00
+4.420881E+00 +1.913511E+00 +9.584565E+00 +9.457000E-01 -1.209899E+00 +1.523866E+00 +2.096767E+00 +2.726647E+00 -3.925533E+00
+1.432045E+01 +8.020714E+00 +6.395187E+00 +1.527954E+00 -8.028407E-02 +1.251149E+00 +2.221572E+01 +1.115435E+01 -2.740439E+01
+1.127670E+01 +1.356222E+01 +6.285532E+00 +1.926807E+00 +1.189678E+00 -1.652752E+00 -4.282458E+00 +4.807969E+00 -1.473522E+00
+8.106287E+00 -3.902301E+00 +6.071470E+00 +1.055599E+00 +9.066549E-01 +1.381676E+00 -1.871536E+00 -2.596793E+00 -5.865400E+00
-4.124085E+00 -1.797302E-01 +1.270393E+01 +9.463439E-02 +2.276475E+00 -1.836337E+00 -1.951456E+01 +2.342562E+00 -6.876639E+00
+1.346257E+01 +1.627239E+00 +7.546712E-01 +1.319489E-01 +6.351745E-01 +1.584465E+00 +8.177477E-01 +3.762263E-01 -1.196141E+00
+1.126336E+01 +3.144061E+00 +5.260432E+00 -1.612221E+00 -2.977217E+00 +8.471308E-01 +4.499538E+00 +4.424068E+00 +7.646603E-01
+1.867810E+01 +1.179339E+01 -6.413064E-02 -1.009031E+00 +2.235341E+00 +1.379525E+00 -1.016950E+01 -2.063839E+00 +3.453827E+00
+4.589246E+00 +2.197683E+00 +9.949927E-01 -6.647209E-01 -8.046490E-01 +2.352090E-01 -7.951557E-01 -7.763885E+00 -7.968954E+00
+6.827125E+00 +5.829302E+00 -1.363064E+00 +1.031117E+00 +9.915605E-01 -9.278644E-01 +4.346816E+01 -1.001282E+02 -4.606799E+01
+1.159983E+01 -3.979731E-02 -3.588371E+00 +2.184692E+00 -3.991021E-01 +1.451975E-01 +1.296795E+01 -1.496211E+01 +1.391531E+01
+6.002382E+00 +9.732023E+00 -5.419907E+00 -1.592869E+00 +1.463171E-01 -8.133522E-01 -2.561559E+00 -2.553135E+00 +4.250861E+00
+1.398111E+01 +1.223458E+00 +7.014641E+00 +5.800642E-01 -1.766795E+00 +8.687521E-01 -2.382406E+00 -3.784231E+00 +5.557739E-01
+1.419993E+00 +2.941630E+00 +2.963147E+00 -3.463993E-01 -5.497364E-01 -7.484935E-01 +7.096522E+00 -7.958687E+00 +4.970689E-01
-2.999884E+00 +1.034981E+01 +8.181690E-01 +6.863000E-01 +4.838674E-02 -1.812426E+00 -5.471419E-01 +1.540281E+00 +2.642654E+00
+4.378988E+00 +6.088291E+00 +1.050736E+01 +1.404021E+00 +1.351488E+00 -5.043071E-01 +9.203239E+00 +1.228955E+01 -1.207764E+01
+5.360998E+00 -2.588621E+00 +7.067791E+00 +4.801097E-01 +7.526258E-01 -1.596706E+00 -6.130404E+00 -2.029334E+00 -8.255560E+00
-5.882157E-01 +1.100532E+01 +8.668111E+00 -1.110710E+00 +8.137635E-01 -3.650249E-01 -2.744502E+00 +6.675512E-01 -9.182761E+00
+7.930061E+00 +1.016127E+01 +2.388422E-01 +9.225386E-01 -8.326445E-01 +8.551207E-02 -2.238841E+00 +7.040594E-01 +5.311954E+00
+1.524780E+01 +1.299141E+01 +1.236386E+01 -1.069807E+00 +4.093483E-01 +5.591354E-01 +2.587718E+01 +2.570066E+00 +1.843732E+01
+6.094887E+00 +8.971564E+00 +1.123505E+01 -1.407411E+00 +4.382254E-01 -9.337450E-03 +7.927335E+00 -1.364472E+01 +1.041486E+00
+5.582313E+00 +1.406053E+01 +4.528304E+00 -5.468347E-01 +6.501844E-01 +6.875713E-01 +1.109744E+01 -2.869389E+01 -1.010901E+01
+7.675991E+00 +3.383235E+00 +9.376404E-01 +2.685918E-01 -1.745174E+00 -3.457792E-01 -2.137054E-02 +3.077221E+00 +4.018881E+00
-1.883497E+00 +3.885941E+00 +1.004110E+01 -5.295447E-01 +6.866503E-02 -3.827081E-01 -7.839332E+00 +7.161295E-01 -1.640184E+00
+7.471305E-01 -2.588644E+00 +1.066608E+01 -1.219283E+00 -1.437348E+00 -1.527553E-01 +2.790674E+01 -1.468432E+01 +8.310342E+00
+1.608752E+01 +5.393053E+00 +9.321079E+00 +7.149776E-01 -7.054247E-01 -1.786065E-01 +2.107812E+01 -5.715622E+00 -3.279062E+01
+3.483533E+00 +1.344084E+00 +9.608720E+00 -1.387914E+00 +1.990842E-01 +1.713712E+00 +3.498451E+01 -1.993265E+01 -4.696273E+00
-2.272909E+00 +9.629861E+00 -3.077694E+00 +1.752695E+00 +5.233365E-02 -1.622115E-01 +3.466852E+01 -8.558307E+00 -1.757106E-01
-7.835805E-01 +1.083263E+01 +5.929644E+00 -3.797858E-01 +1.271836E+00 +1.169787E+00 -1.419900E+00 -2.117673E-01 -1.987682E+00
+9.498416E+00 +1.707220E+00 +4.109361E+00 -1.806269E+00 -1.941991E-01 +5.922042E-01 +2.123151E+01 +2.524034E+00 -1.012242E+00
+1.035864E+01 -1.221864E+00 -8.346215E+00 +3.683615E-01 -1.806120E+00 +6.482717E-01 +7.848033E+00 +7.358236E+00 +9.858278E+00
+5.139001E+00 +1.116553E+01 +8.975428E+00 -2.694888E+00 +9.754522E-01 -1.715785E-01 -1.779438E+00 -3.327143E+01 +1.272206E+01
-5.054184E-01 +5.591857E+00 +3.379945E+00 -4.447480E-01 -3.963484E-03 +3.038541E+00 +6.846181E+00 +2.205901E+01 -1.702830E-01
+5.050697E+00 +4.989656E+00 -8.958299E+00 -1.028787E+00 -6.880408E-01 +1.060139E+00 +4.093637E+00 +6.906910E+00 +1.216254E+00
+5.538072E+00 +9.823737E+00 +1.136677E+00 +9.270904E-01 +1.046325E-01 -1.111737E+00 -1.019764E+01 +1.296528E+01 -5.660822E+00
+9.208968E+00 +1.277936E+01 +9.075878E+00 -3.333217E-02 -6.128557E-01 -1.528359E+00 -3.336601E+00 +1.306029E+01 -4.035045E+00
+7.682842E+00 +3.889775E+00 -6.181423E+00 +1.718231E-01 +1.101898E+00 +1.232282E+00 +1.156904E+00 +5.044826E+00 +2.340968E+00
+1.295535E+01 +7.668930E+00 +2.139936E+00 +1.376783E+00 -9.271333E-01 -6.925054E-01 +2.835943E+00 +5.508333E+00 +1.237838E+00
+1.628720E+01 -3.355686E+00 +3.726673E+00 +1.943803E+00 -2.305385E+00 +1.345094E+00 -1.439451E+00 +4.654674E-01 -1.239242E+00
+7.644564E+00 +1.869788E+01 +6.268648E+00 -1.964530E+00 +5.367671E-01 -1.381579E+00 +5.554041E+00 -2.145759E+00 +5.292140E-01
+6.858050E+00 +1.670971E+00 +3.600177E+00 -1.674841E+00 +7.561065E-01 -1.269606E+00 -3.011942E-01 -2.100760E+00 -1.981773E+00
-5.966008E+00 +1.192861E+00 +8.656276E+00 -4.005563E-01 -9.492567E-02 +1.546214E+00 +3.538800E+00 -2.329563E+00 +1.624159E+00
+9.020780E+00 +7.681202E+00 +1.006466E+01 +1.717085E-02 -1.128097E-01 -7.677694E-01 -2.063590E+01 +7.983769E+00 -1.691974E+01
+1.190462E+01 -1.485707E-01 +2.783794E+00 -1.608198E+00 -4.106206E-01 +2.736686E-01 +3.014457E+00 -4.377444E+00 -1.403284E+01
+1.160354E+01 +1.137980E+01 +5.116012E+00 +7.544681E-01 -5.592620E-01 +4.791638E-01 +1.551174E+00 -1.943267E+00 +6.757716E-01
+1.124438E+01 +4.425594E+00 +1.262813E+01 -6.968190E-01 +4.826500E-01 -4.014800E+00 -3.062412E+00 +3.708824E+00 -3.919776E+00
+1.011703E+01 -1.166920E+00 +4.487087E+00 -2.124088E+00 -4.446122E-02 +9.263560E-01 -5.840951E+00 -4.477662E+00 -1.007022E+00
+1.538648E+01 +5.225460E+00 +2.604646E+00 -5.809111E-01 +1.493829E+00 -1.563225E-01 +1.445925E-01 +2.047455E-01 +4.681167E-01
+3.985006E+00 +8.291123E+00 +2.923454E+00 +8.172193E-01 +8.045652E-01 +2.063593E-01 -1.814224E+00 +7.641127E+00 -4.813050E+00
+1.482540E+00 +4.342828E+00 -4.937828E+00 -1.746024E-02 -1.078753E+00 -1.061911E-01 -4.843051E+00 +8.879837E+00 +1.315480E+01
+7.174772E+00 +9.142455E+00 -2.204661E+00 +8.789433E-01 -2.341609E+00 +1.564528E+00 -7.568017E-01 +2.571012E+00 -3.800532E+00
+2.939289E-01 +1.841234E+00 +1.930228E+00 -1.592010E+00 -1.240356E+00 -7.472046E-01 +4.150475E-01 -3.272860E+00 -1.072048E+00
-3.521778E+00 +1.466314E+01 -5.783029E-02 -1.610591E+00 +5.953233E-01 -1.371657E+00 -7.188308E+00 -1.365642E+01 +1.965247E+00
+1.385537E+01 +6.340792E+00 +2.757037E+00 -6.926031E-01 +1.830696E-01 -1.838800E+00 -1.982310E+01 +1.679162E+00 +2.687584E+01
+1.076099E+00 +1.147601E+01 -6.787255E-01 +1.207830E+00 -2.491088E-01 +1.765918E+00 -2.772108E-01 +7.273137E-01 +3.182822E+00
+1.730465E+01 +3.962105E+00 +2.773527E+00 -2.033854E-02 -6.206085E-01 -1.902539E-01 -1.129130E+01 -1.399804E+01 +8.467434E+00
+2.521308E+00 +4.047269E+00 -1.260949E+00 -5.419443E-01 +2.012190E+00 -8.787294E-01 -2.211139E+00 +2.623370E+00 -2.849054E+00
+1.350285E+01 +3.016440E+00 -2.153231E+00 +1.283736E+00 +9.753142E-01 -5.969269E-01 +1.512970E+00 +2.631506E+00 -5.035847E+00
+1.499066E+01 +1.020941E+01 +3.731877E+00 +6.485652E-01 -1.559879E-01 -4.801374E-01 +6.343358E+00 -1.473695E+01 -2.197793E+00
+2.678592E+00 +1.677291E+01 +5.503990E+00 -2.956739E-01 +1.788068E-01 -1.945835E-01 +6.363281E+00 -3.499788E+00 -2.574045E+00
+6.204443E+00 +1.056076E+01 +7.519411E+00 +1.046539E+00 +7.626296E-01 +1.068899E+00 -5.169838E-02 -1.174671E+01 -5.115005E+00
+1.709946E+01 -2.571380E+00 +1.158514E+01 +6.602660E-01 +5.977289E-02 +1.199240E+00 -1.808721E+01 +1.385366E+01 +1.559737E+00
+1.306628E+01 +1.248290E+01 +2.090139E+00 +2.583331E-01 +4.942914E-01 +1.765702E-01 +1.697756E+01 +3.312816E-02 -1.383373E+01
+1.457121E+01 +5.774924E+00 +4.601903E+00 +6.675182E-01 +1.718311E-01 -1.145835E-01 +5.582735E+00 -2.126873E+00 +3.483312E+00
+2.783165E-01 +4.178155E+00 +1.885141E+01 -1.567277E+00 +9.489175E-01 +1.127623E+00 +6.708352E+00 +1.850494E+01 +6.430678E+00
+3.051221E-01 +4.232567E+00 +3.572595E+00 -9.523734E-01 +6.765384E-01 -8.867730E-01 +1.238250E+01 -1.988222E+01 +5.593244E+00
+5.798133E+00 -1.414372E+00 +1.354475E+01 +4.509338E-01 -1.133815E+00 +7.439145E-01 +1.350549E+01 +5.989131E+00 -1.020922E+01
-1.831954E+00 +1.065191E-01 +4.935050E+00 -1.062771E+00 +9.152772E-01 +8.339708E-01 -1.170374E+01 -2.676692E+01 -2.462462E+00
+1.098508E+01 -1.631945E+00 +1.092173E+01 +1.810281E-01 +7.125625E-02 -2.918204E-01 -1.368355E+01 +1.398807E+01 -2.190322E+01
+8.543363E+00 -2.242397E+00 -5.061515E+00 -2.947504E-01 -5.166467E-01 +1.858131E+00 -3.207528E+01 -4.228778E+01 -7.226920E-01
-2.285830E+00 +1.176389E+01 -3.896888E+00 +6.569173E-01 +5.469567E-01 +2.890711E-01 -1.008584E+01 -6.211251E+00 +3.606917E+00
+8.535970E+00 -2.513442E+00 +3.014817E+00 +5.052326E-01 -3.480684E-01 +1.680027E-01 +5.582911E+00 +4.628841E+00 +2.969040E+00
+3.162711E+00 +3.999210E+00 -3.635487E-01 -4.011803E+00 +4.207017E-01 -8.581916E-01 -2.614709E+01 +3.027827E+00 +2.702083E+01
+5.995181E+00 +7.242061E-01 +4.504741E-01 +1.022779E-01 -1.140035E+00 -7.993990E-01 -3.050208E+01 -3.292024E+01 -6.086802E+00
+4.309740E+00 +4.864040E+00 +7.292044E+00 +9.901094E-01 +4.338085E-01 -5.778634E-01 -1.358909E+00 -2.774450E+00 +2.182271E+00
+7.797273E+00 -3.224786E+00 -3.159269E+00 +2.602128E-02 +1.774465E-01 -1.915693E-01 +3.175331E+00 -2.537231E+00 +2.919845E+00
+1.311063E+01 +3.566115E-01 +1.462487E+01 -1.310065E+00 -3.924654E-01 -5.182848E-01 -3.453159E+00 -1.182826E-01 +1.986663E+00
+8.578186E+00 +6.119931E+00 +1.999111E+00 +3.360106E-01 -5.935525E-01 +1.902621E+00 +5.788893E+00 +7.900294E+00 -3.065030E+00
+1.302215E+01 +2.952667E+00 +6.015166E+00 +7.672468E-01 -7.393149E-01 +2.493376E+00 +2.626771E+00 +1.518342E+00 -2.293362E+00
+9.086655E+00 -4.719201E+00 +2.484973E+00 -1.312225E+00 +4.385706E-02 +1.075656E+00 -3.293517E+00 -1.936397E+00 -3.017456E+00
+6.457026E-01 +6.627781E+00 +1.242946E+01 +7.380954E-01 -8.214926E-02 -8.260888E-01 +9.849691E+00 +1.990960E+00 +3.911305E+00
+7.980461E+00 +7.005050E+00 +4.455254E+00 +1.857938E-01 +6.951268E-01 +3.966561E-01 -8.213026E+00 -7.722199E+00 -2.693835E+00
+7.627742E+00 -8.547729E+00 +1.163198E+00 +5.147262E-01 +1.299173E+00 -4.022705E-01 -5.813655E-01 -1.766563E+00 +3.109501E+00
-1.353278E+00 +1.984722E+00 +5.693209E+00 +1.664759E+00 -6.997685E-01 -2.176685E-01 +1.454622E+01 -3.489810E+00 -9.680892E+00
+1.676074E+01 -1.021854E+01 +6.883759E+00 +9.533346E-01 -1.507080E+00 -6.298868E-01 -3.048370E+01 +7.541886E+00 -4.050804E+00
+4.534331E+00 +3.368222E+00 +5.188832E+00 +6.687399E-01 -1.745478E+00 -1.818901E+00 -5.169545E+00 +3.178362E+00 +6.881748E+00
+1.087211E+01 +1.072866E+00 -3.201953E+00 +4.949179E-01 +1.145010E+00 -5.375494E-01 -4.843641E-01 +2.319922E+00 +3.111365E+00
-5.195395E+00 +3.147483E+00 -3.410778E-01 +1.162167E+00 +1.367717E-01 +4.112337E-01 -2.408007E+00 -2.807632E+00 -4.004546E+00
+1.200512E+01 +3.971979E-01 -8.648454E+00 -5.286378E-02 -1.149048E+00 +3.709381E-01 -3.461936E+00 -8.468292E-01 -4.703382E-01
+2.089367E+01 +1.566963E+01 -6.915670E+00 +1.502825E+00 -1.538385E+00 +4.777598E-03 -9.520038E+00 +4.434852E+01 -3.101260E+01
+9.330420E+00 +8.062478E+00 +4.029768E+00 -4.250969E-01 -9.806384E-01 -5.575773E-01 +2.349025E+00 +6.117040E+00 -9.594646E+00
-8.761699E-01 +1.850753E+01 -5.027759E+00 +1.475091E+00 -1.173550E+00 +3.131850E-01 +4.403814E+01 +4.469200E+01 +3.484258E+00
+7.600491E+00 -5.038148E+00 +6.503120E+00 +6.349966E-02 +1.839740E-01 -4.371470E-01 -1.069143E+00 +1.779567E+00 -3.019418E-01
+1.893350E+01 -1.124871E+00 -2.380474E-01 -4.074628E-01 +1.468930E+00 -1.747470E-01 +2.187566E+00 -1.076970E+00 +1.102481E+00
+8.793350E+00 +4.216088E+00 +7.480626E+00 +1.817498E+00 -1.528090E+00 +2.869138E+00 +3.866861E+00 +7.761315E-01 -1.659180E+00
+3.929732E+00 -3.693259E+00 +1.396704E+01 +9.957594E-01 +2.766398E-01 +2.423299E-01 +2.816491E+01 -1.471933E+01 -2.140618E+01
+1.598792E+01 -5.989815E+00 +3.307743E+00 +1.524658E-01 -3.100131E-01 +5.424038E-03 +1.192576E+00 +3.485411E+00 +2.085232E-01
+1.598982E+01 +6.052054E+00 +1.003478E+01 +5.945710E-01 +7.361251E-02 +8.406412E-01 -6.167992E+00 +2.595952E+01 +2.661353E+01
+7.267045E+00 +6.712219E-01 -2.099678E+00 +2.521805E-01 -8.525272E-02 +1.201065E+00 -9.073806E-01 -8.686998E-01 -1.116301E+00
+6.028988E+00 +1.209403E-01 +5.759892E+00 +2.581238E-01 +1.248754E-01 -6.674562E-01 -5.612902E+00 -1.272091E+01 +5.500233E+00
+6.762889E+00 +1.361584E+01 +4.629054E+00 +8.837360E-01 +7.554610E-01 -1.805661E-01 -1.083524E+00 +4.906318E+00 -2.540621E-02
+4.795556E+00 -4.949068E-01 +1.526152E+01 -1.802419E+00 +2.824418E-01 +2.570867E-01 +1.459177E+01 +8.678752E+00 -9.027576E+00
+8.652949E+00 -2.468366E+00 +6.067542E+00 -8.737649E-01 +1.977503E+00 +6.131837E-01 -2.798447E+00 -4.337141E+00 -7.855961E-01
+1.798229E+00 +6.239952E+00 +9.160345E+00 +8.362663E-01 +1.407287E+00 +1.783319E+00 +2.395366E+01 +4.559469E+01 -1.784765E+00
+1.651081E+01 -4.612453E+00 +4.857140E+00 -3.080535E-01 +4.941112E-01 +8.560335E-01 -1.060733E+01 +4.525439E+01 +5.180956E+01
+9.726001E+00 +2.842181E+00 +1.395161E+01 +1.715363E+00 +1.521573E+00 +1.604700E+00 +5.688979E+00 -2.327201E+00 +4.218107E+00
+1.028654E+01 +7.271839E+00 -2.305225E-01 +8.544230E-01 +2.763832E+00 +4.712624E-01 -1.517362E+00 +2.639055E+00 -1.783901E+01
+1.792036E+01 +4.386461E+00 +2.051369E+00 +3.412446E-01 +1.217568E-01 -8.397536E-01 +6.928148E+00 +4.220687E+00 -6.181417E+00
+6.806727E+00 +5.947003E+00 +2.718410E+00 -6.521189E-01 -9.275076E-01 +7.168406E-01 +3.327562E+00 -2.211953E+00 +4.167238E-01
+4.269076E+00 +2.805973E+00 +8.739142E+00 -2.920172E-01 -1.543403E+00 -9.352533E-01 +4.375204E+00 -3.236269E+00 -6.515507E-01
+1.798723E+01 +5.611718E+00 +1.036816E+00 +4.676196E-02 +3.297415E-01 +1.855994E+00 +3.490918E+00 +1.128023E+00 -1.044206E+01
+7.849482E+00 +2.260134E+00 -2.335724E+00 +2.505096E+00 -2.858369E-01 +1.188972E-01 +6.770334E-01 +3.723241E+00 -1.868396E+00
+1.146657E+01 +1.534595E+01 +9.180658E+00 -1.713770E-01 -7.292656E-01 -5.276442E-01 -2.162189E+01 -5.437267E+01 +5.723043E+00
+1.118635E+01 +5.314737E+00 +5.508101E+00 -1.331579E-02 +6.901127E-01 -1.625507E+00 -1.776565E-01 +1.341233E+01 -1.294373E+01
+1.158410E+01 +3.449086E+00 +9.153850E+00 +1.403719E+00 +1.452386E+00 +1.492007E+00 +4.632320E+00 -9.214347E-02 +3.438676E+00
+4.488523E+00 +6.290007E+00 +2.000211E+00 -5.371020E-01 -9.654404E-01 -2.160275E+00 +2.121043E+01 -3.477006E+00 -2.215286E+01
+3.135709E-01 +4.928820E+00 +2.569734E+00 +1.893266E+00 +6.916541E-01 -7.847791E-02 -1.413460E+01 +1.886051E+00 -1.942107E-01
+1.479907E+01 -1.049426E+00 +7.524605E-01 +9.191886E-01 -2.622899E-01 -9.662238E-01 -2.992757E+00 +4.914972E+00 +6.007244E-01
+1.034622E+01 +3.737614E+00 +5.348566E+00 +5.566844E-01 +1.473734E+00 +1.649353E+00 +1.049256E+01 -6.480890E+00 +8.647030E+00
+2.442642E+00 +6.403386E+00 +3.659053E+00 -8.439398E-01 -1.353536E-01 -1.576014E-02 -1.195563E+01 -8.066984E+00 -1.056399E+01
+1.532408E+01 +2.458702E+00 +3.340474E+00 +2.044093E-01 -3.159736E-01 +2.115172E-01 -6.282634E-01 -4.203973E+00 +2.664934E+00
+1.755740E+00 +3.611894E+00 +1.440333E+01 -3.699494E-01 -2.284787E+00 +1.448901E+00 +7.049516E+00 -9.874950E+00 -1.444846E+01
+1.160171E+01 +7.448102E+00 +5.096942E+00 +1.090525E+00 +1.941692E+00 -1.070214E+00 -5.968019E+01 -1.988046E+01 -4.182412E+01
+5.903658E+00 +5.888043E+00 +1.565494E+01 +1.624287E+00 +1.284798E-01 +2.771042E+00 -1.432482E+00 -1.739181E+01 +3.137328E+01
-2.812503E+00 -1.319523E+00 +1.330754E+01 +4.841351E-01 +1.525313E+00 +8.834097E-01 -8.206438E+00 -6.264064E+00 -6.263201E+00
+6.283773E+00 -7.426256E+00 +1.813188E+00 -8.358019E-01 -8.768900E-01 -1.518979E+00 -5.256241E+00 +2.520267E+01 -4.616543E-01
+1.076977E+01 +5.176797E+00 +1.023536E+01 +6.037061E-01 +5.578365E-01 +2.258066E+00 +9.181185E+00 +3.154336E+01 -4.439679E+00
-4.572184E+00 +4.957357E+00 +4.911208E+00 +1.654038E+00 -2.470491E-01 -8.008748E-01 -3.625603E+00 +3.093145E+01 +1.124975E+01
+8.453323E+00 +1.058931E+00 -4.985625E+00 -1.287747E+00 +3.705488E-01 +8.024014E-01 +1.125018E+01 +2.518000E+01 +9.470206E-01
+1.438791E+01 +6.476009E+00 -2.148283E+00 +7.381302E-01 +8.604611E-01 -6.009590E-01 +1.216370E+00 +2.037042E+00 +2.530720E-01
+1.982607E+01 +1.185939E+01 -9.591400E+00 +1.757760E+00 +6.068989E-01 -8.438362E-01 -2.009349E-01 -1.971885E+00 +5.431129E+00
+9.252520E+00 +1.019555E+01 -5.213435E+00 -1.976120E-01 +8.707230E-01 +2.631106E-01 +4.425372E+00 -5.647181E+00 +1.359591E+01
+9.592457E+00 +1.504627E+01 -3.124980E+00 -6.259304E-01 -1.423677E+00 -1.052758E+00 -4.450087E+00 -6.687644E+00 -4.535699E-02
+1.381551E+01 +5.413957E+00 -8.993880E+00 -2.200540E+00 -7.141843E-01 +3.610515E-01 -1.025155E+01 -1.616549E+01 +1.155513E+01
+1.634441E+01 +7.314856E-01 +1.318142E+01 +1.096736E+00 -2.154962E-02 -1.729259E+00 +5.773206E+00 -2.165373E-01 +3.250698E+00
+1.197728E+01 +7.439542E+00 +5.989246E+00 -6.041363E-01 +6.336948E-01 -1.734916E+00 +1.067064E+01 -8.119154E+00 +5.064750E+01
+1.342294E+01 +1.517042E-01 +7.244111E+00 +2.177959E+00 -4.299102E-01 +2.468524E-01 +1.725796E-01 +1.259286E+00 -2.602540E+00
-4.749686E+00 +9.059284E+00 +4.243482E+00 -9.998370E-01 +5.709664E-02 -1.625066E+00 +4.567633E+00 -2.932544E+00 +2.018706E+01
+3.204747E+00 +1.287114E+01 +3.825970E+00 -1.749572E+00 -1.448356E+00 -5.434639E-01 +1.542721E+00 +1.759242E+00 +5.299879E+00
+2.320732E+00 +5.351940E-01 +5.702336E+00 -2.077300E-01 +9.176277E-01 +8.775355E-01 +1.130844E+01 +1.514444E+01 +3.147299E+01
+7.740930E+00 +1.547948E+01 -7.964634E+00 -3.923838E-01 -1.985260E+00 +5.806509E-01 -1.098498E+01 -6.027906E+00 +1.581091E+01
+1.651801E+01 +8.963367E-01 +5.297288E+00 +1.558937E+00 -7.304676E-03 +7.883569E-01 +6.081027E+00 +3.196079E-01 -9.520182E+00
+7.883899E+00 -2.003321E+00 -3.357794E-01 -1.309333E+00 -1.809433E-01 -4.351571E-01 +2.577921E+00 -4.989296E-01 -4.820499E+00
+5.694093E+00 -2.689108E+00 +1.200798E+01 -1.775646E-01 +2.727531E-01 +1.836494E+00 -1.895919E+01 +1.978531E+01 -1.857215E+01
+9.753134E+00 +7.690140E+00 -4.003298E+00 +2.288281E+00 -7.907396E-01 -1.290731E+00 -1.798968E+00 +1.812827E+00 +1.867182E+00
+8.486665E+00 +2.608243E+00 +1.067581E+01 -1.174735E+00 -7.595417E-01 +7.320401E-01 +6.953331E-01 +3.238740E+00 +1.140394E+00
+1.719383E+01 -2.362169E+00 -2.992759E+00 +7.459774E-01 -1.161863E+00 +5.162373E-01 -3.099793E+00 +5.996816E+00 -1.411027E+00
+5.545387E+00 +1.070509E+01 +4.570586E+00 +9.722337E-01 +1.028967E+00 +1.079733E+00 -7.351642E-02 -1.214322E+01 +4.881337E+00
+1.015948E+01 +3.377195E+00 +1.533553E+00 +1.055068E+00 +9.682089E-01 -5.907810E-01 +4.775950E+00 -2.190969E-02 +6.432399E+00
+4.397768E+00 +4.172303E+00 +9.852800E-01 +4.100291E-01 +3.865658E-01 +8.008818E-01 +2.884137E+00 -5.400565E+00 -4.245201E+00
-1.483800E+00 +9.134343E+00 -4.453843E+00 +8.932556E-01 -7.392033E-01 -2.363276E-01 -7.823658E+00 +7.231980E+00 +7.217653E+00
+1.355339E+00 +5.802911E+00 -1.793478E+00 -1.788215E+00 -2.433990E+00 +7.540412E-02 -3.938067E+00 +1.647980E+00 -2.689934E+00
+1.688500E+01 +4.073991E+00 -3.062459E+00 +2.580607E-01 -1.671472E-01 -1.035407E+00 -1.381033E+01 +8.849034E+00 -2.525375E+00
+1.572262E+01 +1.952335E+01 +7.095462E+00 +3.639290E-01 +6.278664E-01 -1.629572E+00 -1.864538E+00 +3.155749E+00 +1.139898E+00
-1.583645E+00 +1.206811E+01 -7.148918E+00 -6.869776E-01 -6.867387E-01 -8.044443E-01 +3.867067E+00 +3.683689E-01 +6.805766E-01
+9.094812E+00 +6.659954E-01 +3.891181E+00 -2.108291E-01 -5.492623E-01 +1.206196E-01 -5.221072E+00 +1.699272E+01 -1.024280E+01
+1.516250E+01 +2.085200E+00 +8.633394E+00 -1.373351E+00 -6.522147E-02 -5.394738E-01 -8.425750E+00 +2.459927E+01 -1.210139E+01
+9.540662E+00 -1.829591E+00 +1.772804E+00 -2.781969E-01 -9.896225E-01 -7.806200E-01 -1.965019E+01 +1.326462E-01 +2.248179E+00
+1.193737E+01 +9.188619E+00 +5.228462E+00 -9.309717E-01 +4.317558E-01 +2.102147E-01 -4.432655E+00 -7.672499E+00 +6.509775E+00
+7.197484E+00 +7.958766E+00 +5.006746E-01 -1.115401E+00 -3.857392E-01 +8.410080E-01 -2.008505E+01 -2.890461E+00 -6.225709E+00
+1.006154E+01 +9.362794E+00 +9.873344E+00 -2.731408E-01 -1.034243E+00 +4.564542E-01 -2.026568E+01 +1.623343E+01 -4.804776E+00
-5.100917E+00 +1.122498E+01 +3.654590E+00 +8.200142E-01 +6.662871E-01 +9.980162E-01 -1.118013E+01 +1.045599E+01 -1.553976E+00
+2.794163E+00 +7.234388E+00 +1.156343E+00 -9.227692E-01 +1.518178E+00 +1.286487E+00 +4.644986E+00 +2.601471E+00 +6.232130E+00
+1.950381E+01 +1.035902E+01 +1.776946E+00 +2.733537E-01 +1.692549E+00 -1.752748E-01 -4.918158E+00 +1.550019E+01 -7.214941E+00
+1.108369E+01 +8.102607E+00 +9.417100E+00 -8.668864E-01 -6.768409E-01 +5.183734E-01 +6.588137E-01 +3.121690E+01 +1.151666E+01
+8.287467E+00 +9.782552E+00 +9.315605E+00 +6.005152E-01 -1.749256E+00 -3.839093E-01 +6.583473E+00 -3.453627E+00 -5.350296E+00
+1.376973E+01 +1.251075E+01 +1.511200E+01 -1.716895E+00 +9.834896E-01 +1.798535E-01 -3.099618E+00 +1.649598E+00 +4.164094E-01
