rx ry rz vx vy vz ax ay az
-1.865882E-01 -1.072607E-01  1.638192E-01  1.614404E+00 -9.091767E-01  1.092896E+00  6.019387E-01  1.486920E-01  6.223222E-01
-4.574550E-02  1.156591E+00  8.397567E-01 -2.008308E+00  1.104545E+00 -9.777175E-01  7.920584E+00 -7.280027E+00 -2.416373E+00
 8.823850E-01  1.372683E-01  1.027229E+00 -3.195759E-01  8.754059E-01  4.995262E-01  4.766096E-01  1.137962E+00 -7.337534E-02
 8.436812E-01  8.214645E-01 -1.797939E-01 -9.959323E-01 -1.318985E+00 -5.899664E-01  5.170860E-01 -1.405060E+00  2.083272E-01
 6.343000E-03  8.782270E-02  2.031172E+00 -1.445246E+00  9.881504E-01 -5.021676E-02  1.354080E+00 -3.779478E-01  1.307047E+00
-1.197440E-01  1.058501E+00  3.053497E+00 -3.671754E-01  1.616951E-01 -1.322028E+00 -2.068198E+00 -9.018227E-01  9.274475E-01
 9.769465E-01 -8.770800E-02  2.842203E+00  4.796635E-01  1.574598E+00 -6.576113E-01 -2.492243E+00  4.867375E+00  4.798632E+00
 1.057638E+00  8.259301E-01  2.170072E+00 -5.390895E-01 -1.492853E+00 -2.556451E-01 -3.965376E-02 -1.711922E+00 -1.625216E+00
 1.540506E-01  1.592162E-01  4.124292E+00  3.456378E-01  1.702049E-01  7.951498E-01  5.211036E-01  4.107836E-01  1.041066E-01
 1.714127E-01  9.117511E-01  5.012332E+00 -1.304826E-02  3.592361E-01  4.677868E-01  5.496341E-01  6.656757E-01 -1.637148E-02
 1.199420E+00 -1.939514E-01  5.015075E+00  8.016998E-01 -1.753343E+00 -1.825255E+00  2.371499E+00  1.480429E+00  1.687080E+00
 1.073676E+00  1.189550E+00  3.997928E+00  8.978359E-01  1.314882E+00  1.666380E+00 -3.341730E+00 -2.660990E+00 -4.694205E-01
 1.496873E-01 -4.654880E-02  6.051254E+00  8.286497E-01  1.564527E+00 -1.530030E+00 -2.571942E+00  1.516355E+00  1.348833E+00
-6.665120E-02  8.104796E-01  7.171839E+00  1.575025E+00  1.731863E+00  2.939800E-01  5.154950E+00 -7.142998E+00 -1.773231E+00
 8.599331E-01 -5.125760E-02  7.182245E+00 -1.197638E+00 -1.853704E+00 -5.223967E-01  6.178296E-01  1.594927E+00 -2.269416E+00
 8.949369E-01  1.034951E+00  6.131075E+00 -2.009319E+00  1.916548E+00 -5.490471E-01  2.844947E+00  2.038687E+00  8.493798E-01
-3.930400E-03 -1.908347E-01  7.847779E+00  1.044183E+00 -1.916268E-01 -1.326236E+00 -6.705127E+00  3.520486E+00  2.971715E+00
-1.546914E-01  1.126719E+00  8.926948E+00  6.362008E-01  7.220873E-01 -1.021039E+00 -3.128852E+00 -6.925548E+00 -1.748594E+00
 8.833934E-01 -1.926368E-01  9.077664E+00 -1.232851E+00  1.450632E+00 -1.099324E+00  4.612802E+00  3.183393E+00  6.771212E-01
 8.901433E-01  9.647044E-01  7.958664E+00 -1.871527E+00 -1.178830E+00  1.484238E+00  4.633424E+00 -8.998486E-01 -1.379624E+00
-1.099306E-01  2.128934E+00 -1.139857E-01  1.885197E-01  2.602559E-01  3.900339E-01  7.290131E-01  6.389590E+00  4.141605E+00
-1.061198E-01  2.833202E+00  8.496251E-01  9.193882E-01 -5.834362E-01  4.331079E-01 -4.380272E+00  6.745518E+00 -4.974489E-02
 1.160273E+00  1.857601E+00  1.105578E+00 -1.458916E+00 -1.508657E+00 -5.048552E-01  2.128950E+00 -4.808977E+00 -1.270818E+00
 9.362356E-01  3.045305E+00  1.274268E-01 -1.074857E-01 -1.393637E-01 -1.304660E+00  2.035323E+00  4.271724E+00  1.949632E+00
-1.425731E-01  1.967781E+00  1.864513E+00 -3.713242E-01 -1.245825E+00  8.854313E-01  2.441355E+00 -3.572835E+00  1.497135E+00
 1.968940E-01  3.130919E+00  3.098982E+00  7.010748E-01  8.831826E-01  1.574258E+00 -3.274310E+00  9.887403E+00 -5.301353E+00
 1.086678E+00  2.146687E+00  2.881552E+00 -1.089382E+00  1.039366E+00 -7.458733E-01  1.709378E+00 -9.148988E+00  2.195602E+00
 1.034149E+00  3.006708E+00  2.153087E+00  6.000892E-01 -7.513335E-01  9.210707E-01  2.192456E+00  7.116315E+00  1.215811E+00
-7.773780E-02  1.870486E+00  4.120034E+00 -1.787321E+00 -1.375672E+00 -9.730448E-02 -4.812538E-01 -2.679224E+00  2.847839E+00
-7.880510E-02  3.040474E+00  5.139925E+00 -7.497561E-01 -4.358433E-01 -1.133628E+00  1.897613E+00  5.709835E+00 -7.550986E-01
 1.037655E+00  2.092087E+00  5.047873E+00  1.058708E+00  4.201917E-01  5.398038E-02  6.947916E+00 -7.425551E+00 -2.275114E+00
 9.150184E-01  3.088043E+00  3.883053E+00  5.723422E-01 -2.027268E-01  1.021121E+00  2.760787E+00  5.004516E+00  3.860178E+00
 1.144125E-01  2.092152E+00  5.884230E+00 -1.401284E+00 -1.868929E+00 -6.930629E-01 -1.683174E+00  4.136306E+00 -1.281292E+00
 1.853508E-01  2.964018E+00  7.135969E+00  7.714154E-01 -7.481422E-01 -1.673113E+00 -2.688171E+00  1.370175E+00 -3.161453E+00
 8.443961E-01  2.049382E+00  7.127613E+00 -1.526253E+00 -1.912298E+00 -1.461156E+00  3.072913E+00 -3.225062E+00  1.472139E+00
 1.013631E+00  3.038600E+00  6.173631E+00  6.856200E-02 -5.295811E-01  1.847089E+00  5.027905E+00 -9.434114E+00 -3.150714E+00
-1.953138E-01  1.812907E+00  7.887329E+00 -1.300306E+00 -1.774295E+00 -4.674663E-01 -7.905035E+00 -1.197928E+01 -5.631953E-03
-4.353070E-02  3.049669E+00  9.024779E+00  1.645319E+00  7.086753E-01  2.000871E+00  9.618642E-01  1.472646E+01  1.258581E+00
 1.121009E+00  1.997983E+00  8.881061E+00 -1.641058E+00  1.912687E+00 -1.809127E+00  9.162213E+00 -1.408840E+00 -3.681755E-01
 1.170996E+00  3.005837E+00  8.150149E+00  1.812579E+00 -7.950005E-01  4.415151E-01 -5.364375E-01  2.065579E+00 -1.224264E+01
-6.478740E-02  3.868121E+00  1.733710E-01 -2.321963E-01 -1.507103E+00  1.230478E+00 -8.762781E-01  4.891301E+00  1.311634E+01
 1.202271E-01  5.172218E+00  1.109336E+00  7.186163E-01 -1.276459E+00 -4.816530E-01 -2.642653E-01  1.688866E+00 -5.135516E+00
 1.083031E+00  4.008045E+00  1.040168E+00 -1.844995E+00 -3.761416E-01 -1.800072E+00  4.654496E+00  5.267826E+00 -1.570375E+00
 1.050882E+00  4.958294E+00  1.572879E-01 -1.249719E+00 -6.864596E-01  1.082166E+00  2.883904E+00 -2.955679E+00  7.761989E+00
 9.429550E-02  4.073771E+00  2.059359E+00  8.079768E-01 -1.232202E+00 -5.085704E-01 -9.268825E+00 -2.299637E+00 -4.774943E+00
 1.250827E-01  5.184480E+00  3.181929E+00 -3.963053E-01  2.035773E+00 -7.061317E-01 -5.135672E-01 -6.468574E+00 -4.437688E+00
 8.320784E-01  4.124280E+00  3.189426E+00  4.955408E-01 -1.555649E+00 -1.581947E+00 -6.068099E+00 -1.082133E+01 -2.354840E+00
 1.149038E+00  5.115358E+00  2.090326E+00  8.500386E-02 -1.871871E+00  1.168714E+00  1.110915E+01  1.178264E+01  1.117199E+01
 4.712400E-03  3.969534E+00  4.118716E+00  1.093455E+00  6.486954E-01  1.235786E+00 -6.771891E+00 -1.757169E-01 -5.020852E+00
 1.276462E-01  4.942800E+00  5.178707E+00  1.330251E+00 -6.831431E-02 -1.736476E+00 -2.454942E+00  1.681982E+01  2.839764E+01
 1.000022E+00  3.906368E+00  4.851984E+00  7.995279E-01  1.119217E+00  1.977216E+00  2.804488E+00 -1.390772E+01 -2.656664E+01
 1.033347E+00  5.027057E+00  4.006730E+00 -1.509932E+00 -4.592404E-01  2.157641E-01  1.294575E+01  4.633378E+00  9.053835E-01
-1.583265E-01  3.970625E+00  6.190024E+00 -4.862030E-01  1.850308E+00  6.423449E-01 -6.997035E+00 -4.071381E+00 -1.172895E+01
-1.974694E-01  5.029151E+00  7.056671E+00  9.300363E-01  1.771480E-01 -1.838852E+00 -1.595553E+01  7.528849E+00  9.478701E+00
 1.141553E+00  3.880407E+00  6.823482E+00 -7.150397E-01 -1.661773E+00  1.853724E+00  1.177184E+01 -1.568845E+01 -7.008761E+00
 9.382905E-01  5.041111E+00  6.159344E+00  1.442417E+00  1.600075E+00  1.586034E+00  1.897391E+00  2.329234E+01 -7.084418E+00
-1.799330E-01  3.951475E+00  8.079267E+00 -1.159172E+00 -1.453940E-01 -1.338501E+00 -6.540274E+00 -2.830738E+01  7.458775E+00
-4.658570E-02  5.028196E+00  9.027129E+00 -1.144491E+00 -3.622257E-02 -1.073927E+00  1.009589E+01  2.445333E+01  9.190550E+00
 9.501267E-01  3.828845E+00  8.816137E+00  1.636874E+00  7.929458E-01 -1.438246E+00 -2.322355E+00 -1.370249E+01  3.872588E+00
 9.400236E-01  4.893170E+00  7.965489E+00  6.738223E-01 -7.392588E-01  5.538494E-01 -1.209047E+01  3.282635E+01 -5.148757E+00
 6.766280E-02  5.912406E+00  1.802100E-02  1.999437E+00 -1.550943E+00  1.027586E+00  1.867159E+01 -4.742105E+01 -1.579040E+01
 3.763730E-02  6.821731E+00  1.101622E+00 -7.352211E-01  7.174927E-01 -8.630103E-01 -6.085327E+00 -1.864639E+01 -8.698903E+00
 8.157348E-01  6.013889E+00  1.050289E+00 -2.693822E-01  5.526344E-01 -1.039854E+00  1.083351E+01  1.623919E+01  2.552779E+00
 9.210680E-01  6.883972E+00 -1.748639E-01  4.389970E-02  1.479795E-01 -1.565663E+00 -1.161996E+01 -1.245557E+01  5.403414E+00
 1.618619E-01  6.080603E+00  1.845012E+00 -1.613548E+00 -1.276181E+00  1.828925E+00  1.149119E+01 -1.223302E+01  6.365485E+00
 3.601120E-02  6.920843E+00  2.888229E+00  1.557431E+00 -1.795889E+00  1.248128E+00 -1.946434E+01 -1.423952E+01 -1.363146E+01
 9.401988E-01  5.975868E+00  2.953397E+00  1.526727E+00 -1.616606E+00  7.153915E-02  6.504297E-01  5.531705E+01  1.582497E+01
 9.786921E-01  7.034476E+00  2.177312E+00 -1.504624E+00  1.523943E-01  1.423909E+00  9.604059E+00 -5.917928E+01 -1.266767E+01
-8.895560E-02  5.887617E+00  4.088347E+00 -1.741026E+00  4.333560E-01 -1.923771E+00  3.088420E+00  7.642344E+01  2.348101E+01
 1.434670E-02  7.011616E+00  5.125435E+00  6.458488E-01 -8.306559E-02 -1.611632E+00  9.016796E+00 -7.094518E+01 -4.619941E+00
 9.909948E-01  6.027785E+00  5.120336E+00 -1.581442E+00  1.105522E+00  8.747597E-01 -1.618480E+00  5.938880E+01  2.712907E+01
 1.068956E+00  7.118559E+00  4.004015E+00 -1.468143E+00 -1.135059E+00 -2.725916E-01 -2.748060E+00 -3.264278E+01 -4.801103E+00
 9.480950E-02  5.860950E+00  5.835394E+00  1.769583E+00 -1.355974E+00 -1.444626E+00 -3.404454E+00  4.012727E+01 -2.359855E+01
-1.252930E-02  6.817448E+00  6.952882E+00 -1.770294E+00  1.321190E+00 -1.663456E+00 -1.364756E+01 -1.011542E+01  4.657202E+00
 1.019145E+00  6.044199E+00  7.198079E+00 -2.007281E+00 -1.459681E+00  1.829139E+00  6.038495E+00 -7.083692E+01 -2.363772E+01
 9.005749E-01  7.118938E+00  6.050884E+00 -1.900465E+00  8.474741E-01  5.859412E-01  1.849533E+01  7.087537E+01  1.546153E+01
-8.391490E-02  5.862510E+00  7.940498E+00 -1.399489E+00 -7.135974E-01  7.013145E-01 -4.952643E+01  2.905775E+01  7.029199E+00
 1.790400E-03  7.128407E+00  8.967735E+00 -8.920802E-02 -1.160228E+00 -1.143029E+00  2.873056E+01 -2.227894E+01 -1.163060E+01
 1.174494E+00  5.839878E+00  8.992070E+00  6.870313E-02 -1.023201E+00 -3.796308E-01  1.885435E+01  3.814973E+01  3.634346E+01
 1.149065E+00  7.119078E+00  8.017716E+00  4.291407E-01 -1.517278E+00 -1.025318E+00 -4.749793E+01 -2.296630E+01 -3.493727E+01
-1.931872E-01  8.154785E+00 -2.150540E-02 -6.377061E-01 -8.305232E-01 -1.814228E-02  8.764771E+00  4.184758E+01 -5.091548E-01
-1.371816E-01  8.903620E+00  1.131089E+00 -1.336148E+00  8.670687E-01 -2.039669E-01 -1.319585E+01  1.103694E+02  2.155191E+01
 1.005991E+00  7.917662E+00  1.082524E+00 -1.624969E+00  1.990493E+00 -1.059248E+00  3.992119E+01 -5.720184E+01 -3.526675E+01
 1.144438E+00  9.117073E+00  6.995900E-02  1.662803E+00 -1.207159E+00 -3.357577E-01  5.632398E+00 -4.988699E+01  2.482364E+01
 1.721436E-01  7.877689E+00  1.835370E+00  5.810287E-01  3.232088E-01 -2.718484E-01 -2.601059E+01 -1.805869E+02 -6.234730E+01
 1.516061E-01  9.050285E+00  2.866741E+00 -1.905841E+00  1.799963E+00 -7.199793E-01 -8.651358E+01  9.540690E+01  9.164660E+00
 8.028181E-01  7.871166E+00  3.095547E+00 -7.113823E-01  1.426534E+00 -1.202416E+00  7.006769E+01  4.845465E+01  5.342049E+01
 1.139282E+00  9.095268E+00  2.193900E+00 -3.580249E-01  2.460113E-01 -1.073150E+00 -4.470425E+01 -8.005973E+01 -3.294718E+01
 1.186220E-01  8.036210E+00  3.849290E+00  1.020961E+00  1.393441E+00 -8.917381E-01  9.460491E+01  1.086445E+02  8.655280E+01
 5.751760E-02  8.965335E+00  5.187470E+00  1.443197E-01 -1.908521E-01  1.114981E+00 -1.935111E+00 -9.947414E+01 -1.873312E+01
 1.198024E+00  7.977147E+00  4.978426E+00 -7.142101E-01  1.923449E+00  1.749346E+00  3.272326E+01 -1.463282E+01  1.983935E+00
 8.909566E-01  9.070398E+00  3.947489E+00 -1.112541E+00  1.581224E+00 -3.584543E-01 -4.634541E+01  5.449587E+01 -1.478457E+01
-1.926120E-02  7.941456E+00  6.008830E+00 -2.495977E-01 -1.861306E-01  8.582397E-01  3.096608E+01 -5.309321E+01 -7.700473E+01
-1.535272E-01  9.050290E+00  7.052197E+00  1.668392E+00 -1.556069E+00 -4.479489E-01 -6.385843E+01 -9.720027E+01  8.105199E+00
 1.048066E+00  7.844919E+00  6.966963E+00 -7.692644E-01 -6.816630E-01 -1.526584E+00  4.858145E+01  1.713056E+02  6.622414E+01
 1.001216E+00  9.106522E+00  6.134507E+00 -1.007249E+00  1.809140E+00  1.958995E+00  2.664143E+01 -3.781008E+01 -4.560594E+01
 4.911320E-02  7.938284E+00  8.190588E+00 -1.691023E-01  8.196215E-01  1.914610E+00 -8.242992E+01  3.927305E+01 -1.938547E+01
 1.345520E-01  8.983730E+00  9.131609E+00  1.470936E+00 -1.297123E+00 -5.861862E-01  2.037417E+01  4.279948E+01  5.294376E+01
 1.019693E+00  8.029666E+00  8.976359E+00  1.683779E+00 -4.167960E-01 -5.337963E-01 -4.844876E+01  1.415106E+01 -8.193421E+01
 8.875380E-01  8.992421E+00  8.156132E+00 -9.721889E-01 -7.730127E-01 -7.898793E-01  1.235950E+02  5.184797E+01  1.556177E+02
 1.950350E+00 -1.354647E-01  1.088327E-01 -2.020957E+00  7.055205E-01 -8.831491E-01  8.631530E-01 -3.287373E+01 -7.193653E+01
 2.036051E+00  8.941474E-01  8.648760E-01 -7.327528E-01  1.301756E+00  1.286862E+00  8.683245E+01  4.396402E+01 -4.821405E+01
 2.821893E+00  1.272248E-01  1.110725E+00 -1.633081E+00 -6.544237E-01 -1.656093E-01 -7.517811E+01 -9.686752E+01  8.945813E+00
 3.034153E+00  8.450841E-01  1.157772E-01 -1.331188E+00 -1.570621E+00  1.887041E+00  8.300537E+01  9.712740E+01  5.828309E+01
 2.017628E+00  6.453450E-02  1.880578E+00  1.444010E+00  6.133555E-01  1.557996E+00 -1.513379E+02  1.613706E+02  5.641844E+01
 2.160995E+00  9.555516E-01  3.163660E+00 -6.784651E-01 -9.780176E-01 -1.183205E+00 -3.872488E+01  1.237645E+02  5.235111E+01
 2.974207E+00 -1.110438E-01  2.859851E+00 -7.620421E-01 -4.793589E-01 -8.816515E-02 -2.516101E+01 -3.685396E+02 -5.569854E+00
 3.161752E+00  8.650968E-01  2.009204E+00 -1.986137E+00 -9.997831E-01 -1.416375E+00 -1.619268E+01  1.250362E+02 -1.393864E+02
 2.037119E+00  1.334882E-01  4.068314E+00  1.069350E+00  7.246287E-01  7.911959E-01 -6.106155E+01  8.529872E+00 -3.985015E+01
 2.142375E+00  1.196809E+00  5.005522E+00  4.155104E-01 -2.699381E-01 -1.721040E+00  4.133746E+01 -7.061107E+01 -7.481388E+01
 2.925595E+00  5.351400E-02  5.030731E+00 -7.919609E-01 -1.512289E+00  2.025551E+00  1.511066E+02  1.785039E+02  2.261536E+02
 3.174677E+00  8.013887E-01  4.134513E+00  1.228395E-01  1.321898E+00 -1.397037E+00 -2.165444E+02 -5.715950E+01 -1.181090E+02
 1.834569E+00  1.835312E-01  6.164340E+00  1.029282E-01  7.617394E-01 -1.935868E-01  4.828368E+01 -3.119778E+02  2.987129E+01
 2.005968E+00  8.456649E-01  7.142862E+00  1.146768E+00 -1.946346E+00  9.769424E-01  1.056918E+02  1.208015E+02 -2.099975E+02
 2.960300E+00 -3.984300E-02  6.878432E+00  6.544490E-01 -1.606859E+00 -1.107616E+00 -2.421811E+02  7.026235E+01  1.253480E+02
 2.828836E+00  1.069455E+00  6.174526E+00  1.834159E+00  5.536041E-01 -1.896150E+00  1.920560E+02 -2.840853E+02  1.935274E+01
 1.894489E+00  8.620460E-02  8.161352E+00  3.393507E-01 -9.579651E-01  8.380806E-01  6.052232E+01  7.356734E+02  2.606823E+02
 2.033984E+00  8.907288E-01  9.186899E+00  1.045580E+00  1.442109E+00 -1.067375E+00 -8.525351E+01 -2.644838E+02 -1.431292E+02
 3.030536E+00  9.683640E-02  9.033805E+00  1.996968E+00  1.635692E+00  7.260417E-01  7.881800E+01  9.274403E+01  3.948854E+01
 3.134156E+00  1.034663E+00  7.959634E+00  9.888983E-01  8.970853E-02  6.833912E-01 -3.845626E+01 -6.639804E+02 -8.684825E+00
 1.830307E+00  1.838362E+00  1.628843E-01 -8.826537E-01 -2.504613E-01  1.585236E+00  4.117109E+02  6.161818E+02  1.749588E+02
 1.904757E+00  2.988488E+00  9.022220E-01  6.825098E-01 -1.301957E+00 -5.014913E-01 -2.163681E+02 -6.735061E+02 -4.055783E+01
 2.955477E+00  1.857471E+00  9.861023E-01 -8.339962E-01  1.133753E+00 -2.944312E-01 -9.050577E+01 -4.330725E+01 -2.617847E+02
 2.851742E+00  2.891540E+00 -1.897450E-02  1.718724E+00  9.122902E-01 -1.097270E+00  1.304294E+02  6.455003E+02  5.718219E+01
 2.069171E+00  2.088002E+00  1.927605E+00  4.723315E-01 -1.721192E+00  7.286330E-01 -4.912749E+02 -2.483188E+02 -1.331168E+01
 2.025867E+00  3.071023E+00  2.878198E+00  8.611415E-01 -1.283886E+00 -1.947811E+00  1.508950E+02  1.125963E+02  3.661276E+02
 3.178668E+00  2.140283E+00  2.899684E+00 -1.418457E+00  1.578018E+00  2.044659E+00  2.991312E+02 -2.082675E+02 -1.359687E+02
 3.134158E+00  2.907712E+00  2.037175E+00  1.797185E+00 -1.591314E+00  1.092743E+00 -1.033117E+02 -9.989554E+01 -3.244722E+02
 1.975215E+00  1.887233E+00  4.090630E+00  1.156500E+00  1.602860E+00 -1.051453E+00  4.464229E+00  1.497161E+02  5.792533E+01
 1.925974E+00  2.986188E+00  5.099167E+00 -7.235464E-01 -4.923191E-01 -1.920130E-01  8.127497E+02  9.052432E+02  3.405443E+02
 2.979036E+00  2.177099E+00  4.997429E+00  1.431846E+00  1.113534E+00 -9.592317E-01 -5.055427E+02 -6.693675E+01 -2.604878E+02
 3.112598E+00  2.914429E+00  4.064639E+00  8.257611E-02 -1.682638E+00  1.196996E+00 -1.828083E+02 -2.657472E+02  2.002298E+02
 1.873691E+00  2.072298E+00  5.832552E+00 -1.561977E+00  4.585260E-01 -2.894193E-01 -4.465841E+02 -1.529104E+03 -5.172685E+02
 2.052565E+00  2.957813E+00  6.991258E+00  2.612974E-02  1.200930E+00  4.860126E-01 -6.820358E+02  4.590908E+02 -3.351708E+02
 3.195858E+00  1.954206E+00  6.986521E+00  1.517194E+00  9.056923E-01 -9.565521E-01  1.421549E+02  5.244015E+02  3.155595E+01
 2.827193E+00  2.926272E+00  6.053554E+00  1.035783E+00  7.197783E-01 -1.666037E+00  6.743923E+02  3.180900E+01  1.786851E+02
 2.011684E+00  1.943303E+00  7.806207E+00 -2.289877E-01 -1.523007E+00  6.717419E-01  6.038341E+02 -6.062260E+02  6.210422E+02
 1.907831E+00  2.947967E+00  9.135496E+00 -6.169997E-01 -4.358981E-01 -1.733681E+00 -7.356503E+02  7.762680E+02  1.977901E+01
 3.180598E+00  1.853208E+00  9.040933E+00  1.246432E+00  1.481714E-01 -1.306632E+00 -2.290935E+02 -3.688201E+02 -2.420804E+02
 2.850286E+00  3.190328E+00  8.123849E+00 -5.639284E-01  4.480321E-01 -4.528805E-01  3.014276E+02 -2.751210E+01 -8.507817E+01
 1.828531E+00  4.083179E+00 -1.750815E-01 -1.006102E+00  8.518372E-01 -5.922297E-01 -4.777298E+02 -2.964138E+02  2.221123E+02
 2.133538E+00  5.093930E+00  1.100282E+00  1.674326E+00 -1.399322E+00 -1.589125E+00  1.044961E+03 -8.550805E+02 -1.103988E+02
 2.985167E+00  3.914965E+00  9.014816E-01 -6.195767E-01  1.710998E+00  1.281432E+00 -6.185202E+02 -5.353365E+01  8.433889E+01
 2.900412E+00  4.899596E+00 -1.825307E-01  1.687737E+00 -1.775752E+00 -1.633252E+00  2.585378E+02  2.576001E+03  4.527792E+02
 2.066513E+00  4.035365E+00  2.134076E+00  2.760638E-01 -1.812565E+00 -1.109126E+00  8.885342E+01 -6.863600E+02 -2.946360E+02
 2.191853E+00  4.986191E+00  2.972216E+00  5.950713E-01  3.159672E-01 -1.873035E+00  7.719195E+02 -1.139825E+03  5.106245E+02
 3.056577E+00  3.922007E+00  3.046300E+00  1.841198E+00 -9.087868E-01  8.940893E-01 -4.814288E+02 -1.317723E+02 -1.560591E+02
 3.040344E+00  4.935646E+00  2.062340E+00  1.507363E+00  9.727808E-01  2.006634E+00 -2.254991E+02  6.949430E+02  3.868846E+01
 2.070636E+00  4.095857E+00  4.152180E+00 -1.252499E+00 -1.337107E+00 -3.096384E-01 -1.446865E+03  1.176176E+03 -5.876635E+02
 2.063891E+00  4.818668E+00  5.014147E+00 -6.386707E-01 -4.352178E-01  1.952559E+00  1.155158E+03  3.593596E+02 -1.225082E+02
 2.879472E+00  4.158727E+00  4.970816E+00 -2.500150E-01 -1.128616E+00  1.223166E+00  5.174634E+02  3.706081E+02  3.713914E+02
 3.132141E+00  4.952969E+00  3.940343E+00  1.773061E-02 -1.152335E-01  8.187794E-01 -4.856508E+02 -1.548831E+03  6.559963E+02
 2.124744E+00  3.960494E+00  6.020130E+00 -1.856639E+00  1.412644E+00 -5.835060E-04  9.816030E+02 -1.295569E+03 -1.394674E+03
 1.994668E+00  5.041002E+00  7.154056E+00  4.432635E-01 -1.197300E+00  5.774111E-01 -1.952040E+03  1.446355E+03 -2.102493E+02
 3.196977E+00  3.889678E+00  7.097003E+00 -1.512348E+00 -1.237316E+00 -3.710235E-01  5.223300E+01 -9.078707E+02 -9.402343E+01
 2.965863E+00  5.172185E+00  6.085628E+00  1.159266E+00  5.545788E-01 -3.964595E-01  1.432185E+03 -5.641059E+02  4.668850E+02
 1.864860E+00  3.884741E+00  7.901028E+00  1.513705E+00  6.664237E-01 -1.557593E+00  1.922263E+02 -4.511675E+02  8.132432E+02
 2.177042E+00  4.831618E+00  8.976182E+00  1.326926E+00  2.015649E+00  5.415452E-01 -1.915087E+03 -2.641992E+02  4.746384E+02
 3.044376E+00  3.869804E+00  8.912363E+00  1.792021E+00 -1.794602E+00  1.674743E+00  7.296020E+02  2.163361E+02 -9.954295E+01
 2.892778E+00  4.980568E+00  7.953587E+00  1.384927E+00 -1.275560E-01 -1.720285E-01  7.281249E+02  2.527135E+02 -1.201952E+02
 2.175538E+00  5.824673E+00  9.483490E-02 -1.799074E+00  1.121390E-01 -3.038203E-01  1.912898E+03  5.760190E+02 -8.938320E+02
 2.106814E+00  7.059409E+00  9.455398E-01 -1.228419E+00  9.679212E-01 -3.070908E-01  1.024826E+03 -4.030572E+03 -8.658041E+02
 2.820492E+00  5.976836E+00  1.138362E+00  1.873983E+00 -4.037353E-01  6.045305E-01 -1.474408E+02  2.145260E+03  7.023314E+01
 2.968213E+00  6.819668E+00  1.005630E-01 -2.735056E-01 -1.876623E+00 -1.302976E+00  3.285966E+02  1.010180E+03 -6.624434E+02
 1.907356E+00  5.971836E+00  1.820979E+00 -1.391853E+00 -7.423414E-01 -1.366597E+00 -3.422398E+03 -1.005778E+03  9.030636E+02
 2.069258E+00  7.008726E+00  3.159464E+00  1.562051E+00  1.636073E+00 -1.584167E+00  1.499441E+03  1.533301E+03  4.200554E+02
 2.817963E+00  6.000832E+00  2.983495E+00 -1.851975E+00 -1.375013E+00 -9.657778E-01  3.277576E+02  1.181721E+03  1.291275E+03
 3.059402E+00  6.883323E+00  2.065082E+00  3.003219E-01  1.633245E+00  1.782883E+00 -2.180542E+03 -1.228976E+03 -2.382421E+03
 2.038609E+00  5.854799E+00  3.863892E+00  1.685045E+00  1.782205E+00  1.221277E+00  1.576547E+03  2.106262E+03  1.361365E+03
 2.064002E+00  6.872732E+00  4.807429E+00  3.849976E-01  1.194169E+00 -1.823545E+00 -2.769450E+02  1.287759E+03  5.887634E+02
 2.919851E+00  5.947909E+00  5.022132E+00  9.396833E-01  6.914556E-01 -1.207289E+00 -2.227017E+03 -1.619960E+03 -7.752442E+02
 2.851917E+00  6.975000E+00  4.140439E+00 -1.793666E+00  4.027711E-01 -1.909726E+00 -3.953817E+02 -2.055453E+03  3.711720E+02
 2.046699E+00  6.025142E+00  5.868699E+00 -9.732386E-02  1.374353E+00 -1.886122E+00  1.787832E+03 -3.801705E+03 -2.120188E+03
 1.827745E+00  7.157138E+00  6.812721E+00  6.181284E-02  1.667552E+00  1.233433E-01 -6.085734E+03  2.348068E+03  1.404523E+03
 3.067664E+00  6.064028E+00  7.101246E+00 -6.110720E-01  9.716019E-01 -3.832008E-01  3.308617E+03 -1.781775E+02 -2.845602E+03
 3.041626E+00  7.093719E+00  5.966536E+00  1.369725E-01  1.838040E+00 -1.782637E+00  2.467649E+03 -3.873325E+03  1.748273E+03
 2.137573E+00  5.989577E+00  7.805912E+00  8.513869E-01 -1.907299E+00 -9.698057E-01 -8.037315E+02  5.260530E+03  6.895582E+02
 2.048360E+00  6.820046E+00  8.973139E+00 -7.768421E-01 -1.726358E+00 -3.194133E-01 -8.420765E+02 -1.529360E+02  7.971356E+02
 2.833735E+00  6.027629E+00  9.002541E+00  8.831750E-01 -3.461700E-01 -6.959740E-01  9.615501E+01 -4.299229E+02 -3.921833E+02
 3.042918E+00  6.931814E+00  8.118970E+00 -5.767424E-01  5.131691E-01  8.622453E-01  3.698063E+03  9.913972E+02  8.585269E+02
 2.098840E+00  7.995350E+00 -9.186340E-02  1.785120E+00 -1.417485E+00 -5.330154E-01 -4.484620E+03 -9.622675E+02 -2.405164E+03
 2.110617E+00  9.011076E+00  8.069474E-01 -1.523870E+00  2.033019E-01  4.610619E-02  5.192829E+03 -1.006724E+04 -9.543581E+01
 2.832898E+00  8.043328E+00  1.070590E+00  1.302983E+00 -2.190955E-01  1.686932E+00  4.162133E+02  7.299334E+03 -4.352803E+02
 2.979353E+00  9.175540E+00 -1.578105E-01  4.913179E-01  1.868369E+00  1.403308E+00 -1.014973E+03 -1.441772E+03  2.047641E+03
 1.821891E+00  8.028386E+00  1.994919E+00 -4.406667E-01 -1.861792E+00  1.640866E+00  3.207690E+03  3.976821E+03 -3.071696E+03
 2.135135E+00  9.039356E+00  3.110184E+00  1.805951E+00  1.095641E-01 -6.274438E-02 -2.326270E+03  1.115471E+04  1.869838E+03
 3.031347E+00  7.810980E+00  3.052258E+00 -1.166880E+00  1.140997E-01  4.627769E-01 -2.109229E+03 -2.139241E+03  4.349626E+03
 3.020974E+00  8.932188E+00  1.953762E+00 -2.685688E-01  2.016188E+00 -1.683479E+00 -4.919946E+03  1.469341E+03 -3.655237E+03
 1.908589E+00  8.124501E+00  3.839772E+00 -1.613778E+00  4.400534E-01 -7.909313E-01  3.643853E+03 -5.998738E+03  3.855593E+03
 2.111515E+00  9.040841E+00  4.968052E+00 -1.750007E+00  1.473916E-01 -1.658737E+00 -2.896694E+03 -7.871885E+02 -8.030076E+03
 3.107541E+00  7.803371E+00  5.154552E+00 -1.217823E+00 -1.795344E+00  1.733494E+00  4.621299E+03  2.931369E+03  4.267089E+03
 3.089346E+00  8.852205E+00  4.114948E+00 -3.825531E-01  3.378027E-01 -1.751158E+00 -1.579721E+03 -3.857569E+03 -3.043967E+02
 2.190829E+00  7.839278E+00  5.869109E+00 -1.502578E+00 -6.663959E-01  1.376809E+00  4.888869E+03 -9.196650E+03  3.659117E+02
 2.166112E+00  8.802270E+00  7.183534E+00 -1.942652E-01 -1.889707E+00 -1.146175E-01 -1.077690E+04  3.687442E+03  1.014731E+03
 3.135189E+00  8.126593E+00  7.137319E+00  1.379130E+00 -1.179828E+00 -3.240038E-01  2.111426E+03  6.642669E+03 -5.114459E+03
 2.984939E+00  8.916172E+00  6.066284E+00  1.293650E+00 -6.486706E-01  2.003194E+00  2.058096E+03  2.967422E+03  3.394964E+03
 1.864550E+00  7.909234E+00  7.987857E+00 -7.722232E-01 -1.473994E+00 -1.570641E+00 -5.453113E+03  5.605380E+03  9.071553E+03
 2.091027E+00  8.802077E+00  9.163762E+00 -1.012555E+00  1.420225E+00  1.565042E-01  7.386052E+03 -1.890970E+04 -6.807725E+03
 2.811429E+00  8.095469E+00  9.040798E+00  1.348027E-02  1.663348E+00 -1.104907E+00  2.102439E+03  5.010716E+03 -6.017556E+02
 3.018790E+00  9.058413E+00  8.096127E+00  1.844425E+00  2.826865E-01 -6.094210E-02 -1.065324E+03  1.536786E+04  9.125734E+03
 3.816118E+00  1.936201E-01 -2.578020E-02 -5.179038E-01  5.226376E-02  4.501681E-01  1.276653E+04 -2.063667E+04 -1.211742E+04
 4.104478E+00  9.770830E-01  1.192006E+00 -1.853909E-01  4.639095E-01 -3.241531E-02  3.891974E+03  1.316939E+04  7.039509E+03
 4.907000E+00 -1.047019E-01  1.091067E+00  2.019065E+00 -1.177954E+00  5.082848E-01 -7.348584E+03 -9.771622E+03 -3.032715E+02
 4.809981E+00  1.018963E+00  1.730723E-01 -1.719372E+00  5.375064E-01  1.524427E-01  7.923850E+01 -5.846251E+03 -1.314705E+03
 4.045635E+00 -7.788720E-02  2.023122E+00 -1.357109E+00 -1.610001E+00 -3.306616E-01 -2.190933E+04  3.049114E+04  7.609341E+02
 4.161231E+00  1.018897E+00  2.968426E+00 -5.912561E-01  4.555652E-01 -1.557186E-01  1.189266E+03  2.388374E+04  1.422720E+04
 4.942333E+00  1.311980E-02  2.883703E+00  2.979277E-01 -1.132767E+00 -4.704423E-01 -6.506585E+03 -1.400329E+04  1.949590E+03
 5.020982E+00  8.531019E-01  2.144714E+00 -6.404689E-01  1.116659E-01 -1.807069E+00  1.204591E+04 -1.719512E+04 -1.005344E+04
 3.951934E+00  1.139208E-01  4.029151E+00  8.540532E-01  8.742727E-01 -1.994394E-01  1.912923E+04 -1.425402E+04 -1.613554E+04
 3.850074E+00  9.122635E-01  4.860199E+00 -1.477034E-01  1.297897E+00 -1.645184E+00 -5.986299E+03 -6.646751E+03 -2.933223E+03
 5.007948E+00  9.553140E-02  4.948212E+00 -1.775336E+00  1.819735E+00  8.713918E-01  1.476717E+04 -3.274247E+04 -7.883435E+03
 4.859128E+00  9.471488E-01  3.829197E+00  1.029593E+00  1.412588E+00  3.922700E-03 -2.454421E+04  5.706917E+04  2.723809E+04
 3.937899E+00  1.307660E-02  5.903471E+00 -8.240963E-01  1.072016E+00  1.196906E+00  5.542953E+03 -1.643924E+04 -1.031063E+04
 4.176088E+00  1.166042E+00  7.147746E+00 -1.799336E+00 -1.079031E+00  1.553120E+00 -1.186019E+04  1.630203E+04 -1.139185E+04
 4.923951E+00  5.142980E-02  6.825531E+00 -3.613218E-01 -1.556572E+00  1.042521E+00  5.684291E+03  6.670065E+01  4.906779E+03
 5.166875E+00  1.037925E+00  5.857363E+00  1.064715E+00  1.020139E+00  1.211892E+00  4.823643E+03 -1.901320E+04  1.834782E+03
 4.011828E+00 -1.024920E-01  7.866318E+00  1.297338E+00  1.283567E+00 -1.526147E-01 -1.328329E+04  3.260256E+04  2.795321E+04
 3.990724E+00  9.065266E-01  8.998213E+00  1.037684E+00 -1.370588E+00 -8.753156E-02  3.765974E+04 -4.968415E+04 -2.908218E+04
 4.888179E+00 -7.941350E-02  9.045409E+00 -3.521936E-01 -1.932798E-01  1.226944E+00 -7.609086E+03 -4.987798E+03 -1.154179E+04
 4.915092E+00  9.573291E-01  7.947886E+00  1.415462E+00  5.463808E-01 -1.555416E+00 -2.691254E+04  4.430537E+04  3.854895E+04
 4.054106E+00  2.093923E+00  1.918273E-01 -1.274907E+00 -9.700663E-01 -3.287872E-01  3.515717E+04 -6.211137E+04 -1.699764E+04
 4.114979E+00  2.843938E+00  1.071217E+00  2.410325E-01  1.504018E+00  1.030458E+00 -9.601394E+03  7.245197E+03 -1.822556E+03
 5.049122E+00  2.194205E+00  8.965821E-01 -1.552823E+00 -1.717653E+00 -6.064499E-01 -5.737868E+03  6.260859E+03 -5.594200E+03
 5.056247E+00  2.923306E+00 -3.846670E-02  5.995105E-01  5.329647E-01  1.289746E+00  2.176532E+04 -4.065068E+04 -3.119818E+04
 4.156599E+00  1.844825E+00  1.946802E+00  5.418304E-01  1.158720E+00  1.065920E+00 -2.836092E+04  7.829056E+04  4.894062E+04
 4.092980E+00  2.914455E+00  3.054889E+00  4.867609E-01 -1.186997E+00 -1.816205E+00 -4.448512E+04  8.145012E+04  6.197548E+04
 5.056534E+00  1.831348E+00  2.868512E+00  5.400119E-01 -8.697824E-01  1.693401E+00  2.779965E+04 -4.248778E+04 -4.212544E+04
 4.914059E+00  3.092745E+00  2.164378E+00  3.799857E-01  1.450275E+00  8.379100E-01 -3.358079E+00  1.411112E+04 -6.489732E+02
 4.006093E+00  2.114025E+00  4.103704E+00  1.624609E+00  1.339089E+00  1.331202E-01  4.617339E+04 -8.377317E+04 -7.233666E+04
 4.033233E+00  2.815190E+00  5.075932E+00 -1.436229E+00  1.669935E+00 -1.633273E+00 -1.756561E+04 -2.305343E+04  2.745591E+04
 4.980076E+00  1.943694E+00  4.916494E+00 -5.098418E-01 -1.023559E+00 -3.369366E-01  3.516333E+04 -3.639459E+04 -2.947039E+04
 5.047224E+00  3.052782E+00  4.004509E+00 -1.469193E+00 -1.879410E-01 -3.227041E-01 -2.332998E+04  6.744908E+04  2.892195E+04
 4.191147E+00  1.879126E+00  5.904628E+00 -1.055298E+00  6.243174E-01 -5.764194E-01 -5.326185E+04  2.567977E+04  1.134630E+04
 3.932551E+00  3.052420E+00  7.183036E+00 -1.510828E+00  3.345962E-01  8.209411E-01  6.747562E+03 -2.410413E+04 -1.424371E+03
 5.000829E+00  1.980480E+00  6.828996E+00 -1.394708E+00  2.500048E-01  1.636239E+00 -5.159011E+03  4.496986E+04  1.632999E+04
 5.152259E+00  3.097978E+00  5.942149E+00  1.462287E+00  1.731768E+00 -1.624252E-01 -7.702648E+03 -7.837548E+02 -1.931031E+04
 4.192121E+00  1.974155E+00  8.016882E+00  2.827459E-01  4.530765E-01  1.719672E+00 -1.711596E+04  5.875190E+04  9.488393E+04
 3.812175E+00  2.899902E+00  9.081398E+00  5.965852E-01  1.889886E+00  1.642514E-01  7.380754E+04 -7.816781E+04 -1.176205E+05
 5.167810E+00  1.910412E+00  8.977429E+00  9.493131E-01  1.893011E+00  1.412943E+00  1.502975E+04 -4.009075E+04 -2.001432E+04
 4.944604E+00  2.862197E+00  8.039429E+00 -9.261825E-01 -1.488142E+00 -1.886806E-01 -1.083828E+05  1.376240E+05  1.255722E+05
 4.080070E+00  3.969996E+00  8.957710E-02  1.916837E-02 -3.278149E-02  9.048390E-01  1.345702E+05 -2.657915E+05 -1.119156E+05
 4.164031E+00  4.803827E+00  9.402698E-01 -1.162210E+00 -1.652201E+00  1.758096E+00 -1.544585E+05  2.202109E+05  2.713394E+04
 5.160704E+00  3.976119E+00  8.158295E-01  6.178663E-01 -1.625290E+00  1.568554E+00  6.339788E+04 -9.500137E+04  2.084990E+04
 4.994543E+00  5.195001E+00  1.723065E-01  1.598521E+00  8.993524E-01  1.021501E+00  9.082831E+03 -5.424566E+04 -5.241854E+04
 4.062768E+00  3.882379E+00  2.014465E+00 -1.040639E-01 -1.830180E+00 -5.433823E-01 -4.097881E+04  2.132357E+05  1.038211E+05
 3.856337E+00  4.814157E+00  2.811348E+00 -9.697723E-01  6.344589E-01 -7.293786E-01 -7.099996E+04  8.031923E+04  1.712437E+05
 5.196568E+00  3.895681E+00  2.936596E+00  1.883484E+00  1.875957E+00  1.972219E+00 -1.793908E+04  3.280420E+04 -4.621428E+03
 4.959100E+00  4.971036E+00  1.975761E+00 -1.007285E+00 -1.865202E+00 -1.567868E-01  6.819125E+04 -1.893742E+05 -1.308823E+05
 4.195861E+00  3.810080E+00  4.054117E+00  3.424455E-01  1.667299E+00  1.176745E-01  1.827875E+05 -1.821137E+05 -2.660125E+05
 3.952464E+00  5.043397E+00  4.912512E+00 -1.241314E+00 -1.734107E+00  1.000355E-01 -2.938941E+03 -6.852547E+04  7.365676E+04
 5.043805E+00  4.015028E+00  4.863296E+00  1.054316E+00 -1.347123E+00  1.101836E+00 -5.524357E+04  9.072569E+04  1.703551E+04
 5.110085E+00  4.937550E+00  4.080114E+00 -1.800531E-01 -2.658208E-01  1.359168E+00 -8.435475E+03  5.792219E+04  5.547972E+04
 3.920269E+00  3.918449E+00  6.166015E+00 -1.141583E+00 -1.481644E+00 -1.222015E+00 -8.139385E+04  3.691619E+04 -1.643610E+04
 4.172659E+00  5.138101E+00  7.086631E+00  5.394230E-01 -1.089288E+00  4.457441E-01 -4.041826E+03  2.770982E+05  1.221239E+05
 4.945581E+00  4.096440E+00  6.837559E+00 -5.102204E-02  5.511479E-01  5.269300E-01 -4.399683E+03 -1.692324E+05 -2.886296E+04
 4.857782E+00  5.041139E+00  6.124142E+00  6.603696E-01  5.446719E-01  3.127064E-02  9.799185E+04 -1.600572E+05 -8.742808E+04
 4.085536E+00  4.157730E+00  8.056295E+00  1.816693E+00  1.426373E+00 -2.400653E-01 -9.884642E+04  1.660589E+05  6.036819E+04
 3.824965E+00  5.101207E+00  9.149684E+00  5.876692E-01 -1.109191E+00  4.578951E-01  3.028657E+05 -3.340997E+05 -3.536275E+05
 5.195625E+00  3.865042E+00  8.906700E+00  7.518899E-01 -5.508236E-01  9.114552E-01 -2.304410E+05  1.927148E+05  2.742227E+05
 5.179492E+00  5.026481E+00  7.923714E+00 -9.816958E-01  1.247970E+00 -9.652965E-01 -1.652691E+05  2.681220E+05  2.890197E+05
 3.820001E+00  6.042255E+00  1.010420E-02  8.330910E-01  1.823944E-01  1.642798E+00  7.813494E+04 -2.259180E+05 -1.973266E+05
 3.843171E+00  7.056442E+00  9.083701E-01 -1.037457E+00  7.706930E-01 -1.561794E+00 -4.825197E+04 -2.047201E+05 -4.578958E+04
 5.026726E+00  6.166328E+00  8.448201E-01 -9.940650E-01  1.489148E+00 -3.110376E-01  2.780953E+04  2.200617E+05  2.166792E+04
 4.956683E+00  7.015198E+00 -1.099844E-01  7.911349E-01  6.299151E-01 -1.412214E+00  1.676619E+05 -6.512959E+04 -9.238019E+04
 3.925811E+00  5.838838E+00  2.039385E+00 -5.511845E-01 -1.460005E+00  1.006203E-01 -2.743505E+05  3.877823E+05  4.168563E+05
 3.911630E+00  7.057893E+00  3.021352E+00 -6.820381E-01 -1.815209E+00 -2.770247E-01 -2.819274E+05  2.451082E+05  2.610898E+05
 4.980136E+00  6.130819E+00  3.103380E+00  1.086210E+00 -1.023846E+00 -1.259558E+00  3.119809E+05 -3.371037E+05 -4.256942E+05
 5.074625E+00  7.125983E+00  1.919683E+00 -9.672176E-01 -3.449251E-01  1.277262E+00  1.906427E+04 -1.006847E+05 -5.565743E+04
 3.892511E+00  5.801549E+00  3.804924E+00  1.261831E+00 -1.045193E+00 -9.438488E-01 -8.487534E+04  4.217591E+04  2.331114E+05
 3.820126E+00  6.853643E+00  4.829180E+00  7.270470E-02  1.193613E+00 -7.194290E-01  3.771288E+05 -4.591563E+05 -3.016973E+05
 4.853388E+00  5.953941E+00  4.873629E+00  2.866449E-01 -4.863710E-01  8.754664E-01  2.302835E+05 -1.065446E+05 -2.756367E+05
 5.009331E+00  6.957461E+00  4.048086E+00 -1.826320E-02  2.053867E+00 -1.692476E+00 -1.793193E+05 -1.116142E+04  4.415313E+04
 3.960820E+00  5.906743E+00  5.857055E+00 -1.069659E+00 -5.081324E-01 -1.564875E+00 -2.836650E+05  4.492038E+05  1.526184E+05
 4.125929E+00  6.999888E+00  6.819787E+00 -8.576198E-01  5.584636E-01 -1.193706E+00  1.774665E+05 -3.273883E+04  4.861592E+04
 4.944006E+00  6.154718E+00  6.854350E+00  9.399473E-01  9.234237E-01  6.705295E-01 -8.626114E+04 -1.241722E+03 -8.766960E+04
 5.181671E+00  6.898982E+00  5.981524E+00 -1.339436E+00 -9.845211E-01 -3.403807E-01  7.913702E+04 -3.072789E+05 -1.050378E+05
 4.057174E+00  6.194075E+00  7.860118E+00  1.190951E+00 -1.200321E-01 -1.622377E+00 -2.033692E+05  5.564830E+05  3.360540E+05
 3.886574E+00  7.125849E+00  8.997301E+00 -1.227837E+00 -3.094976E-02 -4.800325E-02  2.137632E+04 -2.345230E+05 -3.009231E+05
 4.870326E+00  6.066061E+00  8.968626E+00  7.429455E-01 -5.976534E-01  1.353000E+00  4.403554E+04 -1.227749E+05 -5.270827E+03
 4.800773E+00  7.085709E+00  7.808356E+00 -4.055268E-01 -9.469646E-01  4.477668E-01  2.814937E+04  3.609816E+05  2.024273E+05
 4.147550E+00  7.919983E+00  1.092729E-01  1.502752E+00  1.658427E+00  1.038620E+00  1.972928E+05 -5.575705E+05 -5.269692E+05
 3.918891E+00  9.156795E+00  9.954106E-01 -1.520006E+00 -1.684444E+00 -1.917815E-01 -7.126969E+05  9.098604E+05  7.015823E+05
 5.146010E+00  7.971094E+00  1.184488E+00 -3.572745E-01  6.697511E-01 -8.446210E-02  1.924489E+05 -2.089649E+04 -2.043742E+05
 5.057715E+00  8.812648E+00 -1.236305E-01 -6.265320E-01 -1.614632E+00  5.712437E-01  2.148105E+05 -4.478101E+05  1.228895E+05
 4.164179E+00  7.986061E+00  2.070701E+00  5.269116E-01 -7.108731E-01 -1.416872E+00 -6.449414E+05  7.325863E+05  5.721973E+05
 4.016806E+00  9.148775E+00  2.928682E+00  1.963166E+00  1.208091E+00  1.749151E+00  4.392219E+05  5.801256E+04  3.057678E+04
 4.849357E+00  8.026450E+00  3.032923E+00 -1.532271E+00 -5.763060E-02 -3.521214E-01 -3.837129E+05  2.438275E+05  2.965936E+05
 4.804151E+00  8.934416E+00  1.845287E+00  1.456565E+00 -8.974461E-01 -1.269556E+00  1.033707E+05 -2.550724E+05 -3.502379E+05
 3.881630E+00  8.133405E+00  4.044668E+00 -2.272941E-01  7.725775E-01  5.210815E-01  7.039011E+05 -1.557141E+06 -8.724981E+05
 4.154738E+00  9.052536E+00  5.162051E+00  3.288843E-01 -2.509345E-01  2.302464E-01  4.709065E+05 -3.663964E+05 -9.869623E+05
 5.102076E+00  8.189726E+00  4.922255E+00  6.596853E-01  4.049490E-01  1.622402E+00 -2.914502E+05  6.224012E+05  7.525892E+05
 4.999340E+00  9.113282E+00  3.923519E+00  1.056544E+00 -1.160103E+00  2.033292E+00 -3.590464E+05  1.955169E+05  2.538869E+05
 3.855609E+00  8.157944E+00  5.884017E+00  2.742696E-01 -2.662950E-01  3.248929E-01 -1.698187E+05  3.681684E+05  3.052724E+05
 4.037544E+00  8.832895E+00  7.170300E+00  7.022505E-01 -4.031677E-01 -6.875992E-01 -2.554762E+05  4.313547E+05  3.884202E+05
 4.932167E+00  7.830723E+00  6.961152E+00 -8.746972E-01 -6.685343E-01 -1.783313E+00  4.843668E+05 -6.730598E+05 -7.172877E+05
 4.855967E+00  9.152158E+00  6.080562E+00 -1.084055E+00  1.813968E+00 -7.767963E-01 -5.717157E+05  7.382289E+05  5.355060E+05
 3.915671E+00  7.936920E+00  7.821393E+00 -1.887297E+00 -1.946747E+00  9.273376E-01  1.424136E+06 -8.781517E+05 -8.398350E+05
 4.013888E+00  8.948237E+00  9.123659E+00 -1.042472E+00  1.989767E+00  8.688615E-01 -9.992354E+05  7.413845E+04  7.791051E+05
 4.906280E+00  8.157824E+00  9.197728E+00  1.782968E+00 -8.193125E-01 -1.979378E+00 -5.182966E+04  4.141144E+05  3.049595E+04
 4.909933E+00  9.005609E+00  8.033276E+00  1.976963E+00  1.784456E+00 -1.671664E+00 -4.592372E+05  9.963672E+04  3.594412E+05
 5.939802E+00  1.880656E-01 -1.129234E-01  1.528836E+00  2.053380E+00 -1.670544E+00  1.831959E+06 -2.295671E+06 -2.375493E+06
 5.946944E+00  1.024819E+00  8.423474E-01  1.208174E+00  1.920995E+00  1.119039E+00 -1.273294E+06  3.097260E+06  2.020656E+06
 7.144203E+00  1.334553E-01  8.249093E-01 -6.206469E-01 -7.216695E-01 -9.429624E-01  1.190832E+06 -2.890601E+06 -2.343289E+06
 7.014733E+00  1.064648E+00 -1.317869E-01  1.662070E+00 -1.767918E+00 -3.051454E-02  2.545918E+04  1.830594E+05  5.782438E+05
 5.813011E+00  1.124369E-01  2.005057E+00  1.569860E+00 -1.502639E+00  1.061104E+00  2.763099E+05  1.586034E+06  1.033018E+06
 5.819036E+00  1.055913E+00  3.010757E+00 -1.376238E+00  1.611157E+00  2.797649E-01 -4.962126E+05  4.489490E+05  4.719207E+05
 7.139007E+00 -7.619420E-02  3.135678E+00 -1.057637E+00 -1.325097E+00  7.365528E-01 -1.962238E+06  6.543436E+05  1.935100E+06
 6.934735E+00  9.491293E-01  1.819260E+00  5.390057E-01  6.887872E-01 -5.946727E-01  2.039910E+06 -7.863189E+05 -2.135515E+06
 6.022249E+00  1.140101E-01  4.102650E+00  6.962974E-01  7.506648E-01  6.009087E-02 -2.325945E+06  8.808257E+05  1.365007E+06
 6.175311E+00  1.174521E+00  5.070934E+00 -1.652360E+00  1.279908E+00 -2.330694E-01  1.597214E+05 -8.151899E+05 -5.824964E+05
 6.979316E+00 -7.784670E-02  5.133035E+00  5.873514E-01 -9.211763E-01 -1.338735E+00 -6.872674E+05  4.701550E+05  1.201448E+06
 7.069284E+00  1.172897E+00  4.164682E+00  6.577094E-01  5.530527E-01  1.673419E+00  2.886039E+06 -2.032669E+06 -2.215137E+06
 6.157289E+00  1.972980E-02  6.025666E+00 -2.625721E-01 -1.289173E+00  3.164339E-01 -9.078321E+05  1.091074E+06  3.031927E+05
 5.942116E+00  1.000054E+00  6.941401E+00  1.587811E+00 -5.508531E-01 -4.811991E-01 -5.632765E+05  2.616500E+06  1.286319E+06
 7.141556E+00  1.918650E-01  7.001243E+00 -1.785747E+00  1.582159E+00 -6.372278E-01 -1.153088E+05  1.164244E+06  9.953232E+05
 7.086658E+00  8.647583E-01  5.928978E+00 -1.678256E+00  4.131004E-01  5.690373E-01 -1.227016E+06 -1.389650E+04 -4.942390E+05
 5.901410E+00 -7.729800E-03  7.855174E+00 -1.894024E+00 -8.848119E-01  1.166669E+00  1.986287E+06 -3.104737E+06 -1.230640E+06
 5.822417E+00  9.354117E-01  9.134675E+00  1.667869E+00 -1.220061E+00  2.123467E-03  4.308493E+05 -2.507290E+06 -1.365794E+06
 6.853960E+00 -1.823513E-01  8.855030E+00 -2.641286E-01  5.328967E-01  1.376712E+00  4.855278E+04  8.808627E+05  3.177360E+05
 7.017793E+00  9.740474E-01  8.060137E+00 -3.333666E-01 -1.261994E+00 -1.767827E+00 -2.842725E+06  1.643903E+06  2.486088E+06
 5.885059E+00  1.924473E+00 -9.221040E-02 -6.849766E-01 -1.248589E+00  1.007969E+00  2.473982E+06 -1.874767E+06 -2.232068E+06
 6.082793E+00  2.814679E+00  9.232467E-01 -5.358870E-01  2.958081E-01  7.593540E-01 -2.113158E+06  1.973119E+06 -1.628965E+05
 6.926658E+00  1.821147E+00  9.111942E-01 -3.113555E-01 -1.929415E+00  1.180661E+00  1.546639E+06 -1.296858E+06 -1.291727E+06
 7.118400E+00  3.154278E+00 -7.306410E-02  6.727724E-01  3.550213E-01 -9.732823E-01 -4.154352E+06  2.183360E+06  4.209603E+06
 5.909347E+00  1.946737E+00  1.868632E+00  1.072008E-01  1.971534E+00 -4.456937E-01  4.584303E+06  2.471654E+06 -3.881922E+05
 6.113261E+00  3.199324E+00  3.014454E+00  1.063571E+00 -1.580485E-01 -1.328739E+00 -1.669909E+06 -2.540591E+06  1.685073E+06
 7.165300E+00  2.004600E+00  3.058980E+00  1.664343E+00 -1.753715E+00  1.420025E+00  4.698716E+05 -3.585714E+06 -2.262958E+06
 6.884857E+00  3.001264E+00  1.914384E+00 -1.673130E+00  1.753993E+00  1.032333E+00  1.117573E+06  3.399826E+06  3.055717E+04
 5.985876E+00  1.854843E+00  3.814364E+00 -1.614681E+00 -8.117497E-02  1.169271E-01  1.153687E+06 -2.760237E+06 -2.252962E+06
 5.850242E+00  3.054604E+00  5.049650E+00  1.192039E+00 -1.555214E+00  1.839771E+00 -1.822720E+06 -3.179341E+06 -7.148110E+04
 7.038025E+00  2.136142E+00  4.908536E+00 -8.181309E-02 -2.502724E-01 -4.237618E-01  1.306159E+06  1.088557E+06  5.323565E+05
 7.107266E+00  2.987838E+00  3.873118E+00  1.638548E+00 -6.843253E-01 -1.592973E+00  4.312598E+06 -4.694208E+06 -4.744437E+06
 5.832054E+00  1.994819E+00  6.123233E+00  1.406487E+00 -1.612922E+00  1.245078E-02 -4.646180E+06  6.013230E+06  2.628771E+06
 6.087981E+00  3.087334E+00  7.050304E+00  2.940886E-01  6.241519E-01 -2.735633E-01 -8.433764E+05  3.883425E+06  4.678411E+06
 6.963678E+00  2.096810E+00  7.133291E+00  8.995814E-01  2.004050E+00 -2.587643E-01  1.576853E+06 -3.020202E+05 -1.661835E+06
 7.170318E+00  3.021153E+00  5.821028E+00  7.732116E-01  2.058235E+00 -2.063216E-01  9.876040E+05 -4.265811E+06 -5.451526E+06
 5.948799E+00  2.199117E+00  7.803285E+00 -4.497837E-01  1.961406E+00 -1.599433E+00 -3.796329E+06  2.414092E+06  6.671404E+06
 5.804789E+00  3.163189E+00  9.124398E+00 -1.881915E+00 -6.952679E-01 -1.055693E+00  1.522588E+06 -9.679486E+05 -1.644196E+06
 6.822113E+00  1.948916E+00  8.815937E+00  3.088734E-01  1.709655E+00  1.221245E+00  4.884048E+06 -6.166138E+06 -6.962764E+06
 7.000524E+00  2.894955E+00  8.141561E+00  1.364307E+00 -1.768677E+00 -1.266212E-01 -8.712877E+06  4.939211E+06  7.625312E+06
 5.891193E+00  4.131838E+00 -1.020870E-01  1.347754E+00 -6.155493E-01  1.042066E-01 -9.084562E+05  5.963609E+06  3.874633E+06
 6.023213E+00  4.831066E+00  9.039737E-01 -1.180016E+00 -1.868495E+00 -1.386818E+00 -1.775111E+06  2.130580E+05 -4.635603E+06
 7.163258E+00  4.012537E+00  1.013446E+00  1.220232E-01  2.475100E-01  2.148960E-01 -2.235856E+06  4.953712E+06  6.196675E+06
 6.898314E+00  4.892108E+00  1.782954E-01  7.759815E-01  1.149695E+00 -1.967129E+00 -6.453012E+05  1.332720E+05  2.511971E+06
 5.865655E+00  4.166183E+00  2.001315E+00  1.115932E+00  1.847297E+00  1.891791E+00  5.339329E+06  1.444410E+06  1.077599E+06
 6.054191E+00  4.921668E+00  3.076866E+00  1.235352E+00  1.166497E+00  7.942837E-01 -5.809985E+06 -9.481662E+06 -1.495338E+06
 6.892271E+00  3.836959E+00  2.838906E+00 -1.343128E+00 -1.179977E+00  7.436523E-01  2.963530E+06  7.520360E+06  3.853374E+06
 7.013840E+00  5.155287E+00  2.113043E+00  7.475065E-01  1.043601E+00  6.174795E-01 -4.154120E+06  4.791378E+06  2.114219E+06
 5.958457E+00  4.106186E+00  4.038229E+00 -1.574571E+00 -1.383379E+00  1.691593E+00  2.026584E+07 -2.743343E+07 -2.629320E+07
 6.085323E+00  5.076200E+00  4.883865E+00 -1.310334E+00  1.589928E+00 -1.312910E+00 -7.911588E+06  1.207202E+07  1.130886E+07
 6.909860E+00  4.019517E+00  5.181373E+00  2.798907E-01 -7.581385E-01  2.182548E-01  3.466591E+06 -2.495770E+06 -2.257817E+06
 7.024920E+00  4.995873E+00  4.109039E+00  1.231356E+00  1.288753E+00  5.758789E-01  2.220252E+06 -2.521756E+06 -3.785548E+06
 5.984648E+00  3.997495E+00  5.895495E+00  6.053915E-01  1.196644E+00 -1.903143E+00 -1.135419E+07  1.500697E+07  6.875671E+06
 5.879099E+00  5.048650E+00  7.144287E+00  5.007709E-01  1.751074E+00 -7.514507E-01  6.957770E+06  2.897988E+06  3.405799E+05
 7.128757E+00  3.911840E+00  7.160211E+00 -9.297810E-01 -1.186923E+00 -7.976489E-01  3.176981E+06 -2.067503E+06  2.877802E+06
 6.989445E+00  4.849502E+00  5.850146E+00 -3.520525E-01 -7.811559E-01  7.333250E-01 -1.354427E+05 -1.041877E+07 -1.357665E+07
 5.965941E+00  3.915926E+00  8.110687E+00 -1.547710E+00 -2.248628E-01  2.064134E+00 -1.900285E+07 -5.201637E+06  1.533512E+07
 5.930614E+00  5.124324E+00  8.811090E+00  4.649914E-01  1.918739E+00  1.590305E+00  2.103790E+07 -5.115157E+06 -1.634530E+07
 7.031701E+00  4.071676E+00  9.150465E+00  1.588375E+00  1.887770E-01  1.212268E+00  1.184220E+07 -1.757570E+07 -1.574789E+07
 7.072993E+00  4.827340E+00  7.922027E+00  8.677374E-01 -3.244096E-01 -3.983014E-01 -1.270277E+07  3.117595E+07  2.742675E+07
 6.119325E+00  5.965763E+00 -8.295860E-02  2.677767E-03  1.069738E+00  1.352505E-01 -1.560994E+07  2.028851E+06  1.362494E+06
 5.934347E+00  7.049664E+00  9.478217E-01  1.709012E+00  1.169267E+00 -1.142571E-01 -2.447760E+06 -6.359877E+06 -7.921082E+06
 6.849538E+00  6.153815E+00  8.059713E-01  9.575386E-01  3.857393E-01  6.295431E-01 -1.124976E+07  1.044312E+07  3.771229E+06
 6.811870E+00  7.004689E+00 -1.284781E-01  1.772552E-01  9.939210E-02 -1.582230E+00  3.743453E+07 -2.469126E+07 -2.448892E+07
 5.910925E+00  6.176344E+00  1.926272E+00  2.754058E-01  1.026094E+00 -1.198038E+00 -2.213047E+07  2.236943E+07  3.912328E+07
 6.108291E+00  7.089516E+00  3.144197E+00 -1.787927E+00  9.731270E-01  1.499368E+00 -1.356471E+07  1.102736E+07  3.064781E+07
 6.881341E+00  6.086781E+00  3.155721E+00  1.023991E+00  3.810117E-01 -5.495751E-01 -2.538354E+06 -1.787401E+07 -2.416053E+07
 7.165236E+00  7.057983E+00  1.954173E+00 -1.242732E+00  1.158435E+00 -2.717297E-02 -6.811599E+05  1.386848E+07  8.783659E+06
 5.964539E+00  6.144098E+00  3.902476E+00  6.792992E-01  1.354512E+00  1.152683E+00  5.554005E+07 -4.047296E+07 -5.917589E+07
 6.047027E+00  7.175255E+00  4.848051E+00  5.041298E-01 -1.855026E+00 -6.123919E-01 -1.486743E+06 -1.019273E+06  6.593584E+06
 7.059501E+00  6.030833E+00  4.991524E+00  1.613227E+00 -1.697463E+00 -1.448301E+00 -3.568088E+07  3.162433E+07  2.030211E+07
 6.883626E+00  7.074410E+00  3.977128E+00 -8.551107E-02 -1.515737E+00  1.317902E+00  9.713461E+06 -1.004380E+07  4.658339E+06
 6.033361E+00  6.152413E+00  6.185568E+00  9.680304E-01  1.884846E-01  2.057188E+00  1.048803E+07  4.061799E+06 -1.134641E+07
 5.851920E+00  7.099929E+00  6.905305E+00 -1.076310E+00  8.191799E-01 -2.344513E-01 -1.592070E+07  4.703618E+07  5.508821E+07
 7.168805E+00  6.079160E+00  6.960206E+00  1.704220E+00  2.156376E-01 -1.690690E+00 -8.684817E+06 -5.424062E+06 -1.744884E+06
 7.145452E+00  7.072631E+00  5.970151E+00  1.240278E+00  1.450916E+00 -6.949049E-02  1.800778E+07 -3.237428E+07 -5.284324E+07
 6.046551E+00  6.087604E+00  7.969200E+00 -1.155582E+00 -1.683252E+00  1.082166E+00  1.890290E+05 -1.131361E+07  6.477274E+06
 5.903439E+00  7.097738E+00  9.179288E+00 -1.358449E+00  8.056480E-01 -1.727420E+00  2.274645E+07 -2.803186E+07 -2.943150E+07
 7.062527E+00  5.888492E+00  9.174238E+00 -1.664165E-02 -2.169744E-01  5.026373E-01 -1.385321E+07  3.031569E+06  3.056875E+06
 6.833416E+00  7.059937E+00  7.872536E+00 -1.845826E+00  1.307633E+00  1.897437E+00 -3.506203E+06  3.194460E+07  2.594351E+07
 6.114460E+00  7.897125E+00  1.682469E-01  9.125994E-01 -1.148061E+00  3.746237E-01 -4.632113E+07  9.924562E+06  9.748080E+05
 6.154051E+00  8.911941E+00  8.993840E-01 -3.607349E-01  1.502435E+00 -1.681559E+00  2.128322E+07 -2.752293E+06 -3.029593E+07
 6.902717E+00  8.031766E+00  1.016139E+00 -1.291564E+00 -1.857347E+00  7.013815E-01  1.937280E+07 -5.795901E+07 -3.256308E+07
 6.980820E+00  8.835660E+00 -8.063480E-02 -4.434295E-01 -1.094483E+00 -9.727848E-01 -5.201180E+07  4.874543E+07  8.317656E+07
 5.897646E+00  7.993738E+00  1.917581E+00  5.883617E-01  7.901281E-01  1.344918E+00 -2.325879E+07  8.182813E+07  8.435008E+07
 6.052282E+00  8.867498E+00  3.078695E+00 -1.257714E+00  9.597945E-02  8.704526E-01  4.314683E+07 -1.863921E+07 -2.288338E+07
 7.091646E+00  7.876048E+00  3.169859E+00  1.984356E+00 -1.020842E+00 -1.163528E+00  1.996821E+07 -5.609694E+07 -4.379224E+07
 6.869060E+00  9.187090E+00  2.102719E+00  9.319219E-01  1.340856E+00 -1.706391E+00 -2.993817E+06  4.272469E+07  2.429649E+07
 5.933591E+00  7.962375E+00  4.062586E+00  4.698956E-01  8.441732E-01 -2.601443E-02 -1.200234E+07 -3.795665E+07 -2.784656E+07
 6.037473E+00  9.171685E+00  4.975026E+00  9.073205E-01  5.564136E-01 -1.849580E+00 -1.233577E+07  2.495313E+07  3.592012E+07
 6.874410E+00  7.801596E+00  4.936274E+00  5.428783E-01  9.082622E-01  1.533176E+00 -5.390163E+07  9.660274E+06  3.703820E+07
 7.004748E+00  8.816260E+00  3.980564E+00  4.340297E-01 -1.898942E+00 -2.234376E-01  7.142628E+07 -2.522187E+07 -8.402651E+07
 5.807660E+00  7.975067E+00  5.961579E+00  1.172074E+00 -1.003023E+00  9.167920E-01  5.451417E+07 -7.714593E+07 -9.048231E+07
 6.107924E+00  9.077954E+00  7.193936E+00  1.561910E+00 -7.728167E-01 -1.434939E+00 -4.313886E+07  5.542132E+07  6.446584E+07
 7.078505E+00  7.970503E+00  7.117744E+00 -5.895917E-02  2.009619E+00  1.526348E+00 -1.007421E+07  4.319248E+07  4.694107E+07
 6.900141E+00  8.916349E+00  6.195019E+00 -1.916344E+00 -5.549460E-01  4.966364E-01 -2.350257E+07 -2.970592E+07 -5.773315E+06
 6.045697E+00  7.900151E+00  8.025906E+00 -2.024287E-01  1.283545E+00  1.855112E+00  8.938393E+07 -7.229836E+07 -9.707126E+07
 5.936765E+00  8.861731E+00  8.884910E+00  1.590204E+00 -2.578806E-01  1.141811E+00  7.726498E+07 -6.765043E+07 -1.137418E+08
 7.198126E+00  8.112865E+00  9.160851E+00 -7.120291E-01 -1.912778E+00 -6.351646E-01 -8.071581E+07  3.720593E+07  7.325008E+07
 6.963499E+00  9.137791E+00  8.131377E+00  1.935481E+00 -3.789085E-01 -2.895300E-01  6.702253E+07 -5.292935E+07 -4.136590E+07
 7.891724E+00  1.276507E-01 -1.298133E-01 -8.587458E-01  1.855818E+00 -7.280667E-01 -1.379240E+08  6.924901E+07  4.480245E+07
 8.108215E+00  1.102867E+00  8.417239E-01  1.134358E+00 -1.587728E+00 -1.674947E+00 -5.582406E+07  5.502042E+07  1.015690E+08
 9.040861E+00  1.271425E-01  1.075993E+00  1.081061E+00  7.231016E-01  1.309852E+00 -9.466380E+05 -3.694238E+07 -3.456272E+07
 8.817440E+00  9.359333E-01 -1.275212E-01  1.194674E+00  1.441592E+00  1.645415E+00  2.841132E+07 -3.481407E+07 -3.143137E+07
 7.832998E+00 -8.505200E-03  2.050142E+00 -9.937066E-01 -1.216304E+00 -8.298818E-01 -4.977658E+07  2.819882E+08  2.778239E+08
 8.033094E+00  8.073288E-01  3.102180E+00 -7.588447E-01 -7.273130E-01 -1.816357E+00  3.120652E+08 -2.724117E+08 -3.502420E+08
 9.104593E+00  2.072620E-02  3.001524E+00  1.000525E+00  4.655584E-01 -5.360646E-01 -1.969369E+07  6.015404E+06  2.430456E+07
 8.899088E+00  1.099682E+00  1.840308E+00  3.339165E-02 -6.308864E-01 -1.169459E+00 -1.559803E+08  4.398346E+07  6.003579E+07
 7.883302E+00 -5.324030E-02  4.131409E+00  1.004053E+00  8.314191E-01 -3.790734E-01 -2.917712E+07 -3.984444E+07 -9.529117E+06
 8.028059E+00  1.101881E+00  5.174536E+00 -1.667770E+00  1.046426E-01  1.822077E+00 -1.126475E+08  8.252588E+07  8.425645E+07
 9.139703E+00 -1.194829E-01  5.099073E+00  6.903880E-01 -1.468143E+00 -2.668030E-01  1.845750E+08 -1.456080E+08 -1.869787E+08
 8.944139E+00  9.719902E-01  4.005475E+00  1.717005E+00 -1.796797E+00 -3.721597E-01 -8.660836E+07  1.160553E+08  1.153502E+08
 8.160938E+00 -1.129902E-01  6.120361E+00  1.553654E+00 -7.597702E-01  8.240989E-01 -2.629322E+07  5.157681E+07  7.875646E+07
 7.884651E+00  8.928117E-01  7.014169E+00  2.186051E-01  9.553286E-01 -7.539911E-01 -7.931395E+07  3.630828E+08  3.511121E+08
 8.890426E+00 -1.750290E-01  7.098628E+00  1.490998E+00  1.476372E+00 -1.957932E-01  7.840637E+07 -1.698878E+06 -2.863359E+07
 8.926818E+00  1.037084E+00  5.821423E+00 -2.448671E-01  3.039747E-01 -1.103824E+00 -9.778685E+07 -2.322467E+08 -1.383190E+08
 7.801609E+00  5.136630E-02  8.181456E+00 -1.928830E+00  6.009111E-01  5.123676E-01  2.315499E+08 -2.818578E+08 -3.233723E+08
 7.932793E+00  1.061617E+00  9.163255E+00 -1.033982E+00 -8.627720E-02 -1.549135E-01 -1.224169E+08 -6.795932E+07 -4.347695E+07
 9.191674E+00 -1.887927E-01  8.828577E+00  1.014969E+00 -1.307718E+00  1.072192E-01  1.191258E+08  8.624609E+07  2.199369E+07
 9.126048E+00  9.362251E-01  7.897392E+00 -4.501848E-01  1.014039E+00  8.305039E-01 -7.436498E+07  1.221629E+08  1.594208E+08
 7.880786E+00  1.953851E+00 -1.932186E-01 -1.233714E+00 -7.628394E-02  1.945075E+00  2.927026E+08 -3.565089E+08 -4.293859E+08
 7.991343E+00  3.124629E+00  1.121764E+00 -9.753406E-01 -1.677770E+00  1.801806E-01 -6.000263E+07 -1.659441E+08 -6.994071E+07
 9.182053E+00  1.808027E+00  1.092867E+00 -1.912171E+00 -3.257194E-01  1.025561E+00 -3.270347E+08  5.651010E+08  5.749610E+08
 8.923324E+00  3.196010E+00  1.859056E-01  1.409872E+00  1.081540E+00 -1.638891E+00  2.032292E+08 -2.963255E+08 -3.712330E+08
 8.100571E+00  1.853227E+00  2.039270E+00 -1.954115E+00 -1.517501E+00  1.999263E+00 -5.595451E+07  5.265524E+08  5.310687E+08
 7.868731E+00  3.037470E+00  3.136427E+00 -1.568670E+00 -1.797447E+00  1.570099E+00  2.589546E+08 -4.355429E+08 -3.768663E+08
 8.848634E+00  1.872094E+00  2.918182E+00 -1.895407E-01  3.946552E-01 -1.291202E+00 -4.977783E+07 -1.608901E+08 -1.876573E+08
 8.805361E+00  2.891834E+00  2.004490E+00 -1.995476E+00 -5.374502E-01  1.320211E+00 -2.335589E+08  5.154966E+08  6.108145E+08
 8.093751E+00  1.985852E+00  3.873736E+00  9.892039E-01 -1.150443E+00 -1.367146E+00  1.839676E+08 -2.891340E+08 -3.969324E+08
 7.907731E+00  3.019510E+00  5.050226E+00 -1.358050E+00  1.477660E+00  6.909515E-02 -8.508068E+07 -4.131224E+07 -1.188443E+08
 9.023422E+00  2.152911E+00  4.994143E+00 -5.265771E-01 -3.774156E-02  2.607409E-01 -1.318213E+08 -5.244708E+06  5.732778E+07
 8.997037E+00  2.888641E+00  3.906906E+00  1.409114E+00  1.281424E+00  5.788173E-01  1.571560E+08 -3.048069E+08 -2.805442E+08
 8.113598E+00  1.837199E+00  5.985701E+00 -8.664636E-01  1.091384E+00  1.523181E+00 -6.250063E+08  8.887855E+08  1.053734E+09
 8.029897E+00  3.089348E+00  7.100657E+00 -6.937108E-01 -3.645359E-01  7.799477E-01  2.650628E+08  1.978636E+08  5.641802E+07
 9.172789E+00  2.129514E+00  6.933184E+00  1.080603E+00 -1.791256E-01 -1.232888E-01 -1.400467E+08  5.077107E+08  5.728921E+08
 9.176095E+00  2.840959E+00  5.857128E+00  4.412561E-01  1.647827E+00  6.395841E-01  1.782057E+08 -1.101719E+09 -1.129383E+09
 7.869504E+00  2.005821E+00  8.137472E+00  8.507695E-01  2.482969E-01 -1.955974E+00  8.435892E+08 -9.427657E+08 -1.007322E+09
 8.120846E+00  2.906538E+00  9.085999E+00 -6.013184E-01  2.165149E-01 -1.070458E+00 -4.874620E+08  5.781086E+08  5.657583E+08
 9.073970E+00  1.927874E+00  9.159708E+00 -7.095069E-01  9.483865E-01  1.709048E+00 -7.644412E+07  5.381186E+07  6.453373E+07
 9.009744E+00  2.902702E+00  8.017722E+00 -1.530626E+00 -1.124057E-01 -2.105150E-01  5.478025E+08 -6.335297E+08 -6.824050E+08
 7.808166E+00  4.144853E+00  2.232620E-02 -1.019944E+00 -8.591951E-01  1.971717E-01 -8.404998E+08  4.862962E+08  5.494052E+08
 7.862970E+00  5.033976E+00  8.953532E-01 -3.473158E-01 -1.427073E-01 -1.713810E+00 -6.073850E+08  1.022403E+09  1.269717E+09
 8.813116E+00  4.171057E+00  1.120043E+00 -7.246075E-01  3.693695E-01  6.518599E-01  5.036863E+08 -7.366477E+07 -2.298338E+08
 9.063175E+00  4.827772E+00 -1.965780E-02 -5.085807E-01 -1.072138E+00 -3.909582E-01  7.189485E+07  1.002989E+08 -5.023896E+07
 8.066923E+00  4.042813E+00  1.934623E+00 -1.347258E+00  1.706522E+00  3.352274E-01  6.829034E+08  1.446902E+07 -9.018178E+07
 7.997336E+00  5.098823E+00  3.005835E+00  1.305003E+00 -6.763199E-02 -1.482394E+00  8.789889E+08 -1.862364E+09 -1.735477E+09
 9.130520E+00  3.965876E+00  3.026144E+00 -3.686983E-02 -1.876298E+00 -8.134186E-01  2.602441E+08 -3.488183E+06 -1.987872E+08
 9.063991E+00  4.805029E+00  1.801788E+00 -1.903107E+00  8.987147E-01 -3.272276E-01 -1.753014E+09  2.702119E+09  2.865331E+09
 8.042060E+00  4.078569E+00  3.930585E+00 -9.775490E-01 -1.584497E+00  1.811159E+00  2.905020E+08 -1.639916E+09 -1.650639E+09
 7.931173E+00  5.163061E+00  5.193288E+00 -1.458531E+00 -3.652944E-01  9.798321E-01 -1.330824E+08  2.407496E+08  1.400298E+08
 8.893790E+00  4.142542E+00  4.917156E+00 -7.631631E-01  9.085262E-01 -1.575878E+00 -3.823370E+08 -5.250139E+07 -4.807057E+06
 9.122525E+00  5.002125E+00  3.909006E+00 -3.482589E-02 -1.538688E+00 -1.988980E+00  1.034674E+09 -3.669429E+08 -3.851485E+08
 7.833734E+00  3.929977E+00  5.994891E+00  6.061775E-02  1.518441E+00  1.531720E+00 -1.907320E+09  2.471830E+09  2.847879E+09
 8.135848E+00  4.877271E+00  7.035125E+00  5.665953E-01 -1.408227E+00  1.114819E+00  7.562905E+08 -4.220684E+08 -6.886204E+08
 8.926608E+00  4.103628E+00  7.179677E+00 -1.390134E+00  8.099522E-01 -9.536867E-01  5.843673E+08 -1.352710E+09 -1.332914E+09
 8.873480E+00  5.115817E+00  5.904750E+00  1.942020E+00  6.443263E-01 -1.471660E+00 -8.103430E+08  1.174927E+09  1.379088E+09
 7.843939E+00  4.195401E+00  8.197289E+00  1.901978E+00 -1.042125E+00  1.183300E+00  1.640523E+09 -2.361233E+09 -2.802109E+09
 8.028535E+00  5.046684E+00  8.909414E+00  1.100991E+00  9.790273E-01  9.538346E-01  1.098835E+09 -2.514788E+09 -2.474785E+09
 8.923933E+00  3.865624E+00  9.027697E+00 -1.513940E+00  2.158894E-01 -1.298719E+00 -2.667772E+08  2.284006E+09  2.289233E+09
 9.099801E+00  5.060845E+00  7.924970E+00 -1.834590E+00 -7.257432E-01 -1.691296E-01  4.545449E+07 -1.406157E+09 -1.483977E+09
 7.861619E+00  6.083140E+00 -2.383490E-02  2.204591E-01 -9.868907E-02  8.837224E-01 -3.200060E+09  2.032418E+09  2.637591E+09
 8.184195E+00  6.985904E+00  9.926474E-01 -1.981323E+00 -1.017469E+00 -1.408851E-01 -2.344771E+08  2.109332E+09  2.213885E+09
 8.853734E+00  6.163294E+00  1.063136E+00 -1.067412E+00 -1.285081E-02  6.448062E-01  9.930432E+07  4.950408E+07 -6.766542E+07
 8.861142E+00  7.081519E+00 -5.926300E-03  3.880945E-01 -1.256439E+00 -6.113745E-01 -1.803599E+07 -2.186163E+09 -2.144736E+09
 7.961896E+00  6.135119E+00  1.968587E+00 -1.389485E+00 -9.118603E-01 -1.013525E+00  3.339267E+09 -2.188560E+09 -2.585396E+09
 8.197609E+00  6.817308E+00  3.095615E+00  8.047735E-02 -7.377753E-01  1.990953E+00 -2.604466E+07  2.352890E+09  1.851042E+09
 9.077855E+00  5.976436E+00  2.850872E+00 -8.798756E-01  9.509209E-01  1.760294E+00  8.309447E+08 -3.455630E+09 -3.468743E+09
 9.030784E+00  7.070327E+00  2.038091E+00  1.579162E+00  1.411571E+00  1.849908E+00 -2.605874E+09  3.309041E+09  3.876938E+09
 8.131669E+00  6.010650E+00  3.966377E+00 -1.307215E+00  1.479885E+00 -1.990599E+00  1.110988E+09 -3.432829E+08 -3.579690E+08
 7.932962E+00  6.936621E+00  4.809477E+00 -1.661143E+00 -9.344725E-01  6.482696E-01 -2.380136E+09  4.167489E+09  4.103259E+09
 8.855271E+00  5.870440E+00  5.066841E+00  1.073319E+00 -1.843647E+00 -1.141768E+00 -2.368695E+09 -2.465249E+09 -2.188822E+09
 8.933749E+00  6.854329E+00  4.083198E+00 -9.229628E-01 -9.408133E-02  1.249220E+00  5.305526E+09 -2.079526E+09 -2.649603E+09
 7.873229E+00  5.991489E+00  5.935041E+00  4.377165E-01  1.666086E+00 -1.919247E-01 -2.818435E+09  5.263194E+09  5.954111E+09
 8.182068E+00  6.856172E+00  6.820202E+00  9.607228E-01  7.626797E-01  6.994462E-01  7.285227E+08 -1.269338E+09 -1.545351E+09
 9.026894E+00  6.067502E+00  7.144529E+00  1.403103E+00 -9.660586E-01 -7.563468E-01  5.743746E+08 -2.519275E+09 -2.506544E+09
 8.966505E+00  7.158208E+00  5.808593E+00  1.599025E+00  1.833779E+00  1.175192E+00 -7.351989E+08  1.310887E+09  1.407192E+09
 7.977745E+00  6.113283E+00  8.099248E+00  1.944616E-01 -8.494659E-01  1.910856E-01  1.215383E+09 -9.162179E+08 -1.427134E+09
 7.894735E+00  6.963179E+00  9.051368E+00 -1.704164E+00  1.244242E+00  6.720597E-01  7.317497E+09 -6.396584E+09 -6.698412E+09
 8.869699E+00  6.191179E+00  8.816299E+00  7.524382E-01  1.469906E-01 -9.723238E-01 -7.015438E+09  3.961804E+09  4.744244E+09
 8.842416E+00  7.129866E+00  8.102706E+00 -2.599027E-01  2.571174E-01 -2.206159E-01 -2.998142E+08  1.577314E+09  1.137957E+09
 7.919419E+00  8.062246E+00  2.825270E-02  1.416285E+00 -5.891385E-01 -1.836328E+00 -4.561434E+09 -1.509302E+09 -3.730340E+08
 8.081068E+00  8.804970E+00  1.061317E+00  1.678970E+00  1.769774E+00  9.018741E-02 -1.909646E+09  5.330099E+09  5.345905E+09
 9.167179E+00  8.094393E+00  1.190590E+00 -1.959028E-02  1.720933E+00  1.890559E+00  3.326605E+09 -2.067550E+08 -3.723363E+08
 8.802082E+00  8.839401E+00 -1.912851E-01 -6.176638E-01  3.910578E-01  1.331050E-01  5.265472E+08 -3.659728E+09 -4.535322E+09
 7.917870E+00  8.164572E+00  2.077189E+00 -2.700970E-01 -1.947525E+00 -1.255567E+00  3.496001E+09 -3.865592E+09 -3.985361E+09
 8.156136E+00  8.867605E+00  2.818960E+00  1.397870E+00 -1.582196E+00 -1.275891E+00  2.938025E+09 -2.240984E+09 -3.859739E+09
 8.968392E+00  8.140490E+00  2.994351E+00 -9.691184E-01  6.901539E-01  4.368069E-01 -2.441262E+07 -3.503308E+08  4.752865E+08
 8.923960E+00  9.003096E+00  2.033915E+00  2.641910E-01  2.260989E-01  1.332216E+00 -3.257259E+09  3.391057E+09  4.147115E+09
 8.090059E+00  7.993025E+00  4.042187E+00  1.226871E+00 -2.546578E-01  2.038754E+00  3.005217E+09 -4.771913E+09 -4.658977E+09
 8.185773E+00  8.928779E+00  4.993012E+00 -8.258509E-01 -5.483776E-01  1.861804E+00 -1.248148E+10  8.883959E+09  1.076600E+10
 9.116019E+00  7.978835E+00  5.000899E+00 -7.977780E-01  8.611430E-01  1.821599E+00  3.852801E+09 -4.907519E+09 -5.461278E+09
 8.932960E+00  9.142667E+00  3.847458E+00 -1.640849E+00 -1.347450E+00 -1.385828E+00  6.096415E+09 -2.254321E+09 -3.618706E+09
 8.102332E+00  8.062322E+00  6.190314E+00 -1.097045E+00  1.433512E+00 -1.725894E+00  1.016384E+07  1.273509E+10  1.249852E+10
 8.188393E+00  8.898900E+00  7.139249E+00 -1.593304E-01  1.264105E+00  1.094267E+00 -2.492306E+09 -3.020927E+09 -1.746775E+09
 9.040201E+00  8.037256E+00  6.918932E+00  7.772265E-02  1.648667E+00  7.597997E-01  3.303718E+09 -4.099615E+09 -5.278368E+09
 8.975287E+00  9.091640E+00  6.129264E+00  1.921781E+00  2.140963E-01  1.958098E+00 -3.322065E+08  7.868711E+09  8.188068E+09
 8.161309E+00  8.076674E+00  7.948991E+00  1.440075E+00 -9.100194E-01  1.543090E-01  1.116611E+09 -1.180036E+10 -1.170331E+10
 7.830525E+00  9.113637E+00  8.936853E+00  1.848414E+00 -1.628641E+00  4.413862E-01  9.691467E+09 -1.123774E+10 -1.251032E+10
 9.186687E+00  8.140584E+00  8.861347E+00 -1.489426E+00 -1.361973E+00 -3.646653E-01 -3.947364E+09  9.936333E+09  9.888815E+09
 8.895293E+00  9.138400E+00  8.157512E+00  1.799407E+00  1.109305E+00  1.140199E+00 -6.248129E+09  2.346841E+09  3.188866E+09
